timestamp,gyrox,gyroy,gyroz,accelx,accely,accelz
0.519,-12.81,37.03,-0.63,-0.1742,-0.1605,-0.9584
0.537,-13.51,39.55,-1.47,-0.1317,-0.1517,-0.9681
0.555,-12.53,35.84,-0.49,-0.0951,-0.1293,-0.9882
0.572,-10.29,25.55,2.24,-0.0527,-0.1263,-0.9994
0.59,-7.98,13.65,4.62,-0.0224,-0.1537,-0.953
0.608,-5.88,4.69,6.72,-0.0204,-0.1703,-0.954
0.626,-3.5,4.06,7.63,-0.0322,-0.1576,-0.976
0.64,-0.91,8.47,7.0,-0.0566,-0.1337,-1.0038
0.657,1.61,14.56,5.04,-0.0922,-0.139,-1.0106
0.675,2.45,14.28,2.1,-0.0844,-0.1664,-0.9681
0.691,0.63,7.77,0.84,-0.0409,-0.18,-0.9291
0.708,-2.03,-0.07,0.42,-0.0209,-0.1834,-0.9228
0.726,-3.5,-4.41,-0.28,-0.0312,-0.1708,-0.9408
0.744,-2.66,-4.13,-2.17,-0.0897,-0.1468,-0.9847
0.76,-0.7,-7.0,-4.06,-0.0971,-0.1317,-0.9574
0.776,1.26,-15.12,-3.64,-0.0473,-0.1283,-0.9447
0.794,2.31,-22.82,-1.68,-0.0219,-0.1093,-0.9442
0.812,3.15,-24.99,0.14,-0.037,-0.0951,-0.935
0.83,3.15,-20.79,-0.07,-0.0644,-0.1122,-0.9423
0.847,3.08,-13.79,-2.03,-0.1044,-0.1151,-0.9384
0.864,2.59,-7.63,-3.99,-0.1063,-0.1132,-0.9232
0.882,2.03,-4.76,-4.06,-0.0522,-0.1078,-0.9189
0.9,0.91,-2.1,-3.29,-0.0439,-0.1122,-0.9086
0.914,-0.42,1.54,-3.01,-0.0658,-0.1117,-0.9208
0.929,-0.91,3.99,-3.43,-0.0854,-0.1171,-0.9306
0.947,-0.7,4.48,-3.5,-0.0717,-0.1019,-0.9354
0.961,-0.14,3.22,-3.22,-0.0766,-0.0922,-0.9433
0.979,1.19,1.19,-2.03,-0.0678,-0.0956,-0.955
0.997,2.8699,-0.56,-0.98,-0.0658,-0.1268,-0.9569
1.014,2.94,-2.52,-0.35,-0.0668,-0.1376,-0.9501
1.029,2.31,-2.8699,-0.21,-0.0741,-0.141,-0.9574
1.046,1.05,-0.35,-0.49,-0.0863,-0.1366,-0.9589
1.061,-0.28,2.8699,-0.7,-0.0873,-0.1327,-0.9638
1.076,-1.33,4.62,-0.84,-0.0775,-0.1415,-0.9735
1.094,-2.24,3.85,-0.7,-0.0751,-0.14,-0.9838
1.111,-2.31,0.35,-0.77,-0.0814,-0.1361,-0.9921
1.127,-1.96,-2.31,-0.7,-0.0873,-0.119,-0.9925
1.145,-1.47,-4.62,0.35,-0.081,-0.101,-1.0111
1.16,-1.75,-6.16,1.26,-0.0795,-0.12,-0.9867
1.175,-3.15,-7.63,1.4,-0.0844,-0.1234,-0.9779
1.191,-4.55,-7.91,1.96,-0.0873,-0.1137,-0.9764
1.207,-5.53,-6.79,2.03,-0.1034,-0.1034,-0.9989
1.224,-5.11,-5.6,2.59,-0.0932,-0.0956,-1.0204
1.24,-5.04,-6.86,3.85,-0.081,-0.1112,-1.0282
1.256,-6.02,-10.22,5.7399,-0.0478,-0.1239,-1.034
1.273,-7.7,-11.55,7.84,-0.0531,-0.1176,-1.056
1.289,-8.75,-8.82,9.1,-0.0605,-0.1112,-1.1087
1.305,-8.68,-2.03,9.8,-0.0727,-0.1224,-1.1648
1.322,-7.49,4.76,10.08,-0.0751,-0.1893,-1.1985
1.34,-7.0,3.43,11.55,-0.019,-0.2205,-1.1843
1.358,-7.21,-7.35,15.47,0.0161,-0.2274,-1.1682
1.376,-7.84,-17.29,20.65,0.0297,-0.1927,-1.1385
1.389,-8.05,-21.14,23.3799,0.0009,-0.1873,-1.1365
1.407,-8.33,-20.72,25.9,-0.0209,-0.2108,-1.1121
1.425,-8.47,-12.39,24.7099,-0.0971,-0.2557,-1.1087
1.442,-8.33,-5.18,23.31,-0.119,-0.2874,-1.0843
1.46,-8.1899,-1.12,23.1,-0.058,-0.2991,-0.8827
1.476,-7.56,0.35,25.41,-0.0424,-0.3328,-1.0184
1.492,-6.16,0.91,28.21,-0.0175,-0.3596,-1.014
1.509,-2.17,-1.12,32.34,0.0331,-0.4094,-1.0277
1.524,0.21,-1.05,36.54,0.0409,-0.4299,-1.0003
1.54,0.98,7.49,39.62,0.0361,-0.4416,-1.0121
1.556,3.08,21.42,41.79,0.0722,-0.4684,-1.0023
1.571,0.77,35.21,43.82,0.0575,-0.5826,-1.0599
1.589,-1.47,45.9199,49.84,0.24,-0.6397,-1.0316
1.606,-3.85,53.27,56.98,0.1956,-0.6387,-1.0828
1.624,-5.25,64.68,65.24,0.2415,-0.6441,-1.1609
1.637,-6.65,89.32,70.98,0.2381,-0.5607,-1.2473
1.651,-7.63,77.56,77.14,0.2776,-0.5773,-1.3268
1.667,-7.84,80.29,83.72,0.3225,-0.6178,-1.3844
1.683,-7.77,79.31,93.1,0.4191,-0.6968,-1.3937
1.709,-17.99,99.47,103.81,0.3152,-0.7637,-1.3649
1.726,-22.4,126.28,101.29,0.1054,-0.7129,-1.4488
1.742,-24.92,136.64,99.96,0.1698,-0.566,-1.4083
1.76,-24.43,112.14,107.73,0.2771,-0.4504,-1.3127
1.776,-21.0,77.7699,121.1,0.3733,-0.365,-1.2697
1.794,-11.55,43.19,127.4,-0.0126,-0.3098,-1.3634
1.811,0.42,21.98,128.87,-0.0888,-0.2552,-1.3346
1.825,8.61,6.16,130.2,-0.139,-0.2283,-1.2487
1.842,15.19,-16.24,134.89,-0.0985,-0.2142,-1.1468
1.855,18.69,-41.72,142.66,0.0453,-0.1776,-1.0653
1.871,22.54,-67.2699,156.59,0.0258,-0.0756,-1.0628
1.889,28.14,-78.68,169.82,-0.0244,0.0688,-1.0726
1.907,34.09,-69.44,177.24,-0.1278,0.1644,-0.9506
1.924,32.7599,-43.47,180.53,-0.1273,0.1566,-0.813
1.942,25.69,-0.84,181.86,-0.0834,0.1464,-0.6675
1.959,15.33,40.53,180.0399,-0.0375,0.1137,-0.5704
1.974,6.58,77.42,175.21,-0.1478,0.1117,-0.547
1.989,-5.32,97.93,173.88,0.2196,0.1356,-0.2488
2.007,-15.75,112.7,177.31,0.2366,0.1512,-0.1625
2.025,-29.26,121.1,180.95,0.1947,0.2,-0.1342
2.043,-32.55,112.77,189.91,0.3679,0.3391,-0.1932
2.061,-21.6299,92.47,203.35,0.4592,-0.098,-0.5963
2.079,-10.01,72.66,219.38,0.4523,0.4318,-0.3006
2.095,3.29,64.12,230.93,0.2152,0.4689,-0.6373
2.111,15.19,71.26,228.69,-0.0771,0.7168,-0.3157
2.126,15.96,103.32,221.06,-0.1415,0.8749,-0.384
2.14,15.33,165.83,201.6,-0.4465,0.5397,-0.3874
2.157,6.65,252.84,177.03,0.0107,-0.2888,-0.6885
2.17,-1.61,305.06,169.12,0.3918,-0.2483,-0.6627
2.184,-12.95,320.32,162.89,0.5929,-0.3835,-0.793
2.2,-20.93,282.94,162.33,0.8803,-0.5519,-0.874
2.214,-25.34,207.9,166.0399,1.0238,-0.6314,-0.9379
2.231,-24.78,94.08,170.59,1.1306,-0.6758,-0.9228
2.247,-20.86,-2.59,170.94,1.0116,-0.5777,-0.8505
2.264,-18.48,-41.37,164.22,0.7983,-0.4113,-0.7466
2.278,-21.14,-24.99,152.1799,0.4997,-0.3235,-0.6846
2.292,-25.48,16.87,136.2899,0.4577,-0.2952,-0.6402
2.306,-31.57,63.7,120.54,0.4133,-0.3181,-0.6197
2.323,-53.69,100.5899,105.07,0.4123,-0.2357,-0.5563
2.341,-38.36,111.09,93.5899,0.4206,-0.1356,-0.4889
2.355,-39.55,102.55,88.13,0.4113,-0.0507,-0.4294
2.384,-36.75,50.54,81.41,0.4026,-0.0644,-0.4055
2.401,-31.71,22.12,78.47,0.3821,-0.0941,-0.4435
2.416,-26.46,4.34,74.55,0.3708,-0.1424,-0.4801
2.431,-20.23,-0.77,70.0,0.344,-0.2357,-0.4923
2.446,-16.31,-0.77,64.05,0.362,-0.3464,-0.5011
2.464,-13.79,0.42,59.43,0.4143,-0.4221,-0.5075
2.482,-10.64,6.23,56.0,0.4811,-0.5333,-0.5641
2.5,-8.1899,12.25,54.81,0.5387,-0.6529,-0.5943
2.518,-4.83,20.44,54.88,0.6114,-0.71,-0.5943
2.534,-2.73,29.26,56.49,0.627,-0.7329,-0.6222
2.55,0.98,36.19,58.73,0.6446,-0.7354,-0.6568
2.566,5.88,40.81,61.39,0.6705,-0.7593,-0.6836
2.581,10.43,40.18,65.5199,0.689,-0.75,-0.6822
2.597,15.75,37.1699,71.05,0.7139,-0.7554,-0.69
2.615,22.33,33.18,77.35,0.7212,-0.7554,-0.7022
2.63,26.32,31.64,82.46,0.7061,-0.7237,-0.6705
2.647,28.42,37.03,85.75,0.6329,-0.6148,-0.6168
2.664,29.26,49.56,85.96,0.5651,-0.4884,-0.6329
2.679,30.59,62.16,83.58,0.527,-0.4221,-0.6866
2.695,32.62,69.3,80.92,0.5368,-0.3991,-0.7188
2.713,33.6,61.67,77.21,0.5748,-0.4382,-0.732
2.731,31.85,47.6699,72.5199,0.5821,-0.5548,-0.7471
2.749,28.91,33.81,66.15,0.6192,-0.6036,-0.7354
2.763,23.45,24.29,59.29,0.566,-0.6246,-0.7417
2.78,19.74,27.58,48.93,0.506,-0.5641,-0.7627
2.798,14.28,38.57,34.65,0.4318,-0.4148,-0.7598
2.816,11.2,43.54,21.7,0.4084,-0.2976,-0.7036
2.832,8.4,39.41,12.32,0.3899,-0.24,-0.6548
2.849,6.16,25.55,3.99,0.3708,-0.1878,-0.6363
2.863,5.18,6.72,-1.47,0.386,-0.1854,-0.6436
2.88,5.18,-18.55,-7.21,0.3855,-0.201,-0.6656
2.896,6.51,-32.83,-12.25,0.386,-0.2137,-0.6749
2.914,8.33,-37.94,-16.52,0.3977,-0.2357,-0.689
2.927,9.52,-35.91,-19.25,0.4274,-0.2723,-0.6939
2.943,10.71,-29.05,-21.6299,0.446,-0.3015,-0.7032
2.961,11.41,-23.94,-24.08,0.4645,-0.3538,-0.7115
2.979,13.16,-14.42,-26.11,0.4919,-0.4309,-0.7407
2.997,15.61,-4.9,-28.63,0.4992,-0.4884,-0.769
3.014,20.37,5.95,-30.38,0.5163,-0.507,-0.7847
3.032,28.35,14.14,-30.59,0.5709,-0.4528,-0.7695
3.05,37.24,9.03,-29.68,0.6226,-0.5558,-0.7734
3.066,43.05,-2.73,-29.61,0.6607,-0.7173,-0.7969
3.08,47.25,-12.67,-30.38,0.71,-0.8735,-0.81
3.098,49.07,-20.58,-33.25,0.7407,-1.0599,-0.791
3.116,44.66,-19.67,-38.64,0.7246,-1.0882,-0.7349
3.134,36.68,-14.35,-48.86,0.6578,-1.0604,-0.6973
3.151,26.39,-14.42,-59.22,0.6544,-1.0931,-0.7027
3.167,20.51,-23.73,-68.74,0.669,-1.1341,-0.7134
3.185,16.52,-34.86,-75.04,0.7271,-1.1863,-0.7036
3.203,10.92,-52.22,-77.07,0.7661,-1.1926,-0.6197
3.22,6.3,-57.68,-77.7,0.7573,-1.1541,-0.5372
3.237,-6.58,-66.57,-78.47,0.688,-1.0755,-0.4387
3.254,-19.4599,-84.56,-78.75,0.6275,-0.9511,-0.4065
3.271,-29.54,-95.06,-78.61,0.5592,-0.7866,-0.4221
3.289,-38.36,-99.96,-79.1,0.4182,-0.5914,-0.4284
3.306,-46.27,-91.35,-79.31,0.3269,-0.4074,-0.406
3.324,-49.14,-79.31,-78.33,0.2693,-0.3596,-0.3645
3.339,-50.33,-68.46,-75.88,0.2513,-0.383,-0.3303
3.354,-50.19,-61.18,-71.61,0.261,-0.4191,-0.2605
3.369,-49.7,-50.47,-67.48,0.2147,-0.386,-0.1556
3.385,-48.09,-37.1699,-63.35,0.1698,-0.3074,-0.1224
3.401,-42.28,-19.67,-60.48,0.1054,-0.2649,-0.3616
3.417,-28.56,-5.39,-53.2,0.281,-0.2879,-0.424
3.431,-18.41,13.3,-46.41,0.1878,-0.3791,-0.3206
3.449,-7.98,57.47,-50.47,0.2942,-0.8862,-0.5494
3.466,12.88,84.98,-31.36,0.627,-0.6051,-0.4723
3.482,24.5,91.14,-14.77,0.4855,-0.4982,-0.3362
3.5,36.47,86.38,12.88,0.6426,-0.7183,-0.3855
3.513,43.75,66.57,30.59,0.6422,-0.911,-0.1629
3.527,40.6,43.4,47.95,0.5748,-1.0145,-0.0556
3.544,36.61,12.32,65.38,0.6675,-1.0897,-0.1576
3.558,30.24,-9.31,75.53,0.6056,-1.0892,-0.2591
3.59,22.26,-19.25,86.31,0.5938,-1.1458,-0.4962
3.608,17.7099,-6.02,88.13,0.6002,-1.0789,-0.4962
3.624,11.27,13.02,88.9,0.5968,-0.9652,-0.4958
3.639,5.18,31.64,90.0199,0.6095,-0.8798,-0.5241
3.654,-1.12,51.03,91.21,0.6231,-0.812,-0.5612
3.669,-5.18,63.49,92.75,0.6529,-0.8012,-0.5895
3.684,-8.82,74.2699,93.8,0.6597,-0.7564,-0.5992
3.699,-12.67,80.92,94.15,0.6675,-0.7456,-0.5963
3.714,-16.17,85.33,93.45,0.6583,-0.7183,-0.5724
3.73,-20.51,89.67,91.35,0.6246,-0.6914,-0.5592
3.748,-24.15,93.03,86.66,0.5836,-0.6236,-0.5309
3.766,-28.84,92.47,79.94,0.526,-0.4919,-0.4621
3.781,-35.4199,90.72,73.71,0.4592,-0.3611,-0.4279
3.799,-41.09,85.4,63.91,0.4235,-0.2976,-0.3718
3.816,-46.55,80.92,55.58,0.3957,-0.2932,-0.3562
3.834,-51.45,79.73,46.9,0.3947,-0.2918,-0.3381
3.849,-54.04,82.11,41.09,0.404,-0.2796,-0.3401
3.865,-54.95,86.5199,36.05,0.4162,-0.2962,-0.3679
3.881,-53.48,93.94,33.11,0.4377,-0.3259,-0.403
3.898,-50.12,98.63,32.06,0.4997,-0.3952,-0.4211
3.915,-45.0099,96.81,34.86,0.5782,-0.4396,-0.4577
3.932,-38.99,93.45,40.81,0.6187,-0.4616,-0.4801
3.95,-30.73,91.0,48.93,0.6495,-0.4577,-0.5065
3.968,-18.9,93.87,55.3,0.649,-0.4372,-0.505
3.984,-12.04,94.01,59.64,0.6675,-0.5455,-0.5436
3.999,-6.09,89.18,61.95,0.6963,-0.6036,-0.5899
4.014,1.05,80.22,62.72,0.7222,-0.6412,-0.6285
4.029,6.44,67.3399,61.81,0.7515,-0.6958,-0.6426
4.044,10.5,51.03,59.64,0.7915,-0.7456,-0.6461
4.06,13.3,38.5,55.79,0.8012,-0.8339,-0.6656
4.076,14.84,27.72,51.31,0.8076,-0.9101,-0.6802
4.09,15.33,21.98,45.78,0.8174,-0.9145,-0.6924
4.108,15.68,21.07,37.1,0.79,-0.8169,-0.7041
4.125,16.73,20.65,29.96,0.8335,-0.9047,-0.7217
4.143,18.41,14.98,23.8,0.8744,-0.9799,-0.7437
4.157,20.72,0.7,21.42,0.9535,-1.094,-0.7427
4.175,22.54,-13.93,19.74,1.0184,-1.1687,-0.7173
4.193,20.16,-42.07,16.94,0.9984,-1.1463,-0.5699
4.209,10.92,-52.08,10.5,0.8705,-1.0345,-0.467
4.225,1.05,-53.55,0.28,0.7671,-0.8754,-0.3943
4.243,-9.52,-48.3,-13.86,0.6739,-0.7598,-0.3694
4.261,-24.78,-37.87,-26.04,0.5709,-0.5797,-0.344
4.274,-31.01,-29.4,-35.56,0.3762,-0.4992,-0.323
4.289,-38.08,-21.77,-43.54,0.4611,-0.4479,-0.3064
4.306,-43.05,-16.1,-50.75,0.4333,-0.4148,-0.2884
4.322,-45.29,-15.4,-55.02,0.4348,-0.3879,-0.2893
4.338,-45.57,-19.18,-56.84,0.4255,-0.343,-0.2908
4.353,-43.75,-29.05,-56.84,0.4362,-0.3401,-0.2952
4.37,-40.11,-42.28,-54.88,0.4533,-0.3703,-0.302
4.386,-35.98,-54.25,-51.52,0.4777,-0.4274,-0.3045
4.402,-33.04,-61.11,-47.39,0.5065,-0.5094,-0.2976
4.419,-28.91,-61.18,-43.54,0.526,-0.5938,-0.2762
4.433,-27.09,-56.98,-39.97,0.5548,-0.6807,-0.2718
4.449,-25.48,-49.56,-34.5099,0.6129,-0.7656,-0.2815
4.465,-23.66,-43.75,-27.58,0.6622,-0.8374,-0.2727
4.482,-22.12,-34.86,-18.76,0.7163,-0.9159,-0.2649
4.496,-21.28,-24.22,-11.62,0.7344,-0.9867,-0.2508
4.511,-21.91,-11.27,-5.04,0.6885,-0.9867,-0.2283
4.539,-25.83,17.92,-0.56,0.5426,-0.8862,-0.2259
4.554,-25.76,36.54,-1.19,0.5016,-0.8657,-0.2918
4.57,-22.12,56.0,-2.31,0.4806,-0.8627,-0.3767
4.585,-16.3799,66.36,-3.15,0.4587,-0.7856,-0.4089
4.601,-9.38,63.07,-2.8699,0.4767,-0.7232,-0.4274
4.619,0.42,46.62,0.14,0.5328,-0.7734,-0.365
4.633,4.34,27.02,4.06,0.5816,-0.8437,-0.3245
4.65,8.26,3.78,10.85,0.6851,-1.0033,-0.3801
4.667,14.0,-11.97,20.44,0.728,-1.015,-0.4367
4.685,19.04,-13.58,25.55,0.6739,-0.935,-0.4553
4.703,23.8,7.91,25.1299,0.527,-0.8442,-0.4352
4.717,24.36,27.86,20.02,0.3894,-0.7202,-0.3889
4.735,22.19,46.83,10.99,0.2991,-0.5782,-0.3455
4.751,19.39,55.23,4.27,0.2698,-0.4196,-0.3533
4.768,18.34,52.78,-3.01,0.2615,-0.3074,-0.3811
4.785,18.55,38.22,-8.54,0.2713,-0.2342,-0.4021
4.801,18.97,19.04,-12.67,0.3103,-0.1986,-0.404
4.818,18.34,-13.23,-16.24,0.3557,-0.2147,-0.4016
4.836,16.66,-40.25,-20.58,0.4065,-0.2659,-0.4187
4.853,14.56,-58.8,-25.55,0.4206,-0.3684,-0.4313
4.869,12.6,-62.86,-30.73,0.4372,-0.3796,-0.4997
4.884,11.97,-58.52,-34.3,0.5187,-0.4294,-0.5172
4.899,11.55,-53.97,-35.56,0.6002,-0.4616,-0.5241
4.914,11.62,-48.23,-34.37,0.6519,-0.4972,-0.5421
4.929,12.25,-39.62,-31.85,0.6988,-0.5255,-0.5597
4.944,13.58,-30.52,-27.37,0.7202,-0.5236,-0.5919
4.959,15.89,-19.4599,-23.8,0.7198,-0.5104,-0.6236
4.974,19.8799,-12.18,-20.79,0.7144,-0.4894,-0.6534
4.989,24.43,-9.87,-17.92,0.7285,-0.5016,-0.6885
5.004,28.84,-13.37,-15.89,0.7646,-0.5119,-0.6954
5.02,32.48,-17.15,-14.7,0.7812,-0.5895,-0.7095
5.035,34.3,-20.58,-14.07,0.8413,-0.6949,-0.7227
5.053,35.4199,-21.84,-12.25,0.9198,-0.8349,-0.7544
5.071,35.98,-18.97,-10.85,0.9272,-0.8505,-0.7729
5.087,35.49,-13.02,-10.57,0.915,-0.8574,-0.7812
5.105,33.74,-13.23,-9.45,0.9764,-0.9755,-0.7705
5.12,31.01,-16.73,-8.12,0.9847,-1.0335,-0.749
5.138,28.35,-21.42,-7.49,0.9716,-1.0433,-0.7568
5.156,26.39,-27.86,-7.7,0.9623,-1.0272,-0.7793
5.169,24.99,-35.84,-8.47,0.9189,-0.9896,-0.6304
5.185,21.91,-44.45,-10.43,0.751,-0.9208,-0.6797
5.201,16.87,-51.24,-13.93,0.7759,-0.8061,-0.6124
5.219,8.96,-49.56,-20.58,0.6534,-0.6914,-0.5607
5.237,-2.94,-37.45,-28.0,0.5084,-0.5275,-0.5016
5.254,-10.71,-24.15,-35.21,0.4128,-0.3669,-0.427
5.269,-16.73,-15.26,-41.37,0.3538,-0.2332,-0.3664
5.282,-20.93,-13.51,-44.38,0.3425,-0.1712,-0.3577
5.296,-22.82,-23.03,-46.55,0.3611,-0.1976,-0.3913
5.312,-24.08,-44.24,-48.86,0.3645,-0.2522,-0.3884
5.328,-26.88,-77.49,-50.4,0.406,-0.324,-0.364
5.343,-32.9,-101.92,-51.94,0.4226,-0.4152,-0.3411
5.36,-41.37,-103.18,-54.25,0.4182,-0.4831,-0.3123
5.377,-50.2599,-79.94,-56.84,0.4265,-0.5216,-0.3289
5.392,-56.42,-50.2599,-57.89,0.4636,-0.5099,-0.3547
5.406,-59.43,-33.88,-54.88,0.5333,-0.5919,-0.3484
5.425,-61.74,-15.47,-45.43,0.6295,-0.6246,-0.3386
5.44,-61.74,-7.7,-34.86,0.7071,-0.6646,-0.3469
5.468,-59.64,10.92,-11.62,0.7495,-0.7598,-0.3455
5.484,-59.36,17.29,1.89,0.7832,-0.8144,-0.3147
5.499,-60.06,21.98,11.9,0.7466,-0.8325,-0.2884
5.514,-60.34,31.08,20.44,0.6739,-0.8496,-0.3235
5.529,-57.68,38.71,26.25,0.6568,-0.8813,-0.3928
5.544,-51.38,44.52,33.74,0.6529,-0.873,-0.4792
5.56,-41.23,50.4,42.0,0.6832,-0.7871,-0.4196
5.577,-29.82,53.97,52.99,0.5592,-0.5875,-0.4128
5.592,-19.67,48.79,61.81,0.5802,-0.5768,-0.3933
5.61,-6.37,42.14,71.68,0.6017,-0.5968,-0.4655
5.626,5.39,35.56,78.68,0.6675,-0.6924,-0.5231
5.644,13.72,31.78,82.67,0.6636,-0.7725,-0.5153
5.66,15.12,32.62,81.48,0.671,-0.8827,-0.505
5.677,13.44,40.53,76.65,0.586,-0.8296,-0.4938
5.692,11.13,54.11,70.98,0.506,-0.7071,-0.4836
5.709,10.22,76.44,64.12,0.444,-0.5421,-0.4748
5.726,9.87,95.97,58.52,0.3513,-0.3645,-0.4406
5.743,8.4,90.16,54.74,0.3747,-0.3245,-0.3928
5.761,7.35,69.23,52.85,0.3943,-0.2376,-0.3655
5.777,7.91,45.85,53.06,0.3923,-0.1956,-0.3674
5.795,9.38,30.73,53.97,0.3928,-0.1625,-0.3757
5.813,13.16,17.64,55.58,0.4221,-0.1708,-0.4191
5.831,15.4,13.72,58.1,0.4982,-0.243,-0.3884
5.845,15.82,15.96,60.34,0.5246,-0.2757,-0.4309
5.863,15.96,23.03,62.44,0.6158,-0.3298,-0.4518
5.876,16.87,27.72,63.91,0.5797,-0.4499,-0.4909
5.892,17.92,33.11,63.91,0.6588,-0.528,-0.4948
5.91,17.99,40.74,62.65,0.6856,-0.5055,-0.5055
5.925,16.73,44.24,59.5,0.6875,-0.5246,-0.4997
5.94,15.33,40.81,56.84,0.771,-0.5821,-0.525
5.957,15.05,28.28,54.39,0.811,-0.5851,-0.5553
5.973,16.45,22.19,50.75,0.8139,-0.5914,-0.5973
5.989,19.04,19.74,46.41,0.8261,-0.6017,-0.6017
6.019,22.54,18.76,38.78,0.9476,-0.691,-0.6065
6.033,23.45,17.99,36.19,0.9974,-0.7978,-0.6124
6.05,24.08,17.85,30.38,1.0125,-0.9062,-0.6197
6.066,24.7099,16.1,25.2,1.0267,-0.9462,-0.6236
6.082,25.83,8.54,18.62,1.0467,-1.0067,-0.6139
6.099,27.3,-5.32,11.6899,1.0604,-1.0438,-0.6134
6.116,29.82,-23.17,4.9,1.0916,-1.0731,-0.6017
6.132,32.55,-41.37,-17.36,1.0858,-1.0609,-0.5792
6.149,34.02,-54.53,-6.79,0.9974,-1.0667,-0.5041
6.167,32.83,-60.13,-15.26,0.8359,-1.0243,-0.4113
6.185,31.57,-61.46,-25.69,0.71,-0.915,-0.3791
6.203,31.01,-62.44,-35.21,0.5982,-0.752,-0.3689
6.22,31.57,-66.01,-40.95,0.5133,-0.5792,-0.3581
6.235,32.48,-71.33,-44.1699,0.4889,-0.4953,-0.3489
6.253,33.95,-80.01,-46.2,0.4753,-0.4211,-0.3455
6.271,35.14,-88.62,-46.06,0.485,-0.3669,-0.3211
6.287,35.91,-95.76,-44.94,0.4933,-0.4953,-0.3025
6.305,35.63,-98.8399,-44.66,0.4733,-0.4201,-0.2703
6.32,32.83,-96.95,-45.78,0.4392,-0.4758,-0.2117
6.337,27.58,-90.16,-49.07,0.426,-0.5768,-0.1952
6.354,22.05,-80.71,-51.38,0.4387,-0.6187,-0.2005
6.372,18.2,-72.73,-52.64,0.4723,-0.647,-0.2244
6.386,14.0,-65.31,-52.78,0.4792,-0.6573,-0.22
6.403,9.8,-63.84,-51.1699,0.5216,-0.731,-0.1766
6.421,4.2,-66.71,-48.44,0.548,-0.813,-0.1659
6.435,0.49,-69.72,-44.66,0.5831,-0.8798,-0.1756
6.453,-3.01,-72.1,-37.59,0.6051,-0.9203,-0.1976
6.468,-4.41,-71.4,-31.08,0.6353,-0.9306,-0.2264
6.482,-5.04,-67.13,-23.73,0.6207,-0.9389,-0.2425
6.497,-5.67,-59.22,-18.48,0.5831,-0.9345,-0.241
6.514,-6.79,-45.5,-14.91,0.5206,-0.9281,-0.2561
6.531,-7.63,-26.95,-11.97,0.5153,-1.0038,-0.2888
6.548,-6.93,-14.35,-7.14,0.5895,-1.077,-0.3381
6.563,-4.41,-7.7,-0.77,0.6431,-1.1141,-0.3655
6.58,-3.36,-2.52,4.41,0.6075,-1.0618,-0.3191
6.595,-4.34,1.12,6.86,0.5216,-1.0243,-0.2732
6.611,-6.72,4.27,6.51,0.4211,-1.0716,-0.2561
6.64,-2.8,-9.52,7.14,0.4265,-0.9901,-0.3528
6.656,3.85,-26.46,10.78,0.445,-0.8876,-0.3669
6.672,9.24,-40.6699,14.98,0.4367,-0.7842,-0.3294
6.687,14.21,-45.43,18.06,0.4113,-0.7354,-0.303
6.703,17.7099,-39.69,19.74,0.3464,-0.6807,-0.301
6.72,20.86,-25.06,19.67,0.3123,-0.6017,-0.3337
6.737,24.85,-9.24,18.97,0.3132,-0.4933,-0.3747
6.755,27.93,0.35,19.74,0.3401,-0.4489,-0.3718
6.773,30.17,3.01,21.2099,0.3904,-0.4113,-0.3123
6.789,29.4,-0.56,22.75,0.4108,-0.4504,-0.3054
6.804,28.77,-3.01,23.31,0.4152,-0.4987,-0.3416
6.821,29.75,-3.22,22.54,0.3982,-0.5275,-0.3811
6.837,31.71,-0.35,20.79,0.3982,-0.4933,-0.3996
6.854,35.77,2.59,19.25,0.3747,-0.5265,-0.424
6.87,40.88,0.98,19.25,0.405,-0.5182,-0.4416
6.888,47.04,-9.9399,21.98,0.4509,-0.4479,-0.446
6.905,55.86,-24.22,26.11,0.5006,-0.4172,-0.484
6.918,61.88,-38.5,29.33,0.5246,-0.4216,-0.5206
6.933,69.79,-52.29,31.15,0.5324,-0.4611,-0.5392
6.947,73.92,-62.65,30.1,0.5358,-0.5177,-0.5524
6.963,77.49,-66.64,25.06,0.5236,-0.568,-0.5651
6.98,79.5199,-60.97,16.59,0.5153,-0.6256,-0.6065
6.997,80.36,-51.8,6.65,0.5509,-0.6783,-0.628
7.015,79.17,-47.95,-4.34,0.6324,-0.7705,-0.6051
7.033,73.57,-53.13,-14.84,0.7144,-0.8593,-0.5494
7.05,65.24,-60.48,-24.7099,0.7393,-0.9667,-0.5158
7.063,56.98,-66.15,-33.39,0.7773,-1.0648,-0.5299
7.08,48.79,-72.17,-41.16,0.8222,-1.1809,-0.5782
7.094,43.12,-75.25,-50.2599,0.8174,-1.2741,-0.5875
7.108,37.59,-77.14,-56.7,0.8237,-1.3078,-0.5582
7.123,31.36,-76.58,-63.35,0.7612,-1.2702,-0.5216
7.138,24.5,-70.28,-71.19,0.6612,-1.1755,-0.4758
7.153,17.57,-64.05,-78.4,0.5968,-1.0843,-0.4352
7.168,10.5,-60.69,-84.56,0.5904,-1.0672,-0.4172
7.183,5.67,-63.28,-86.45,0.6231,-1.0984,-0.4021
7.197,0.77,-75.04,-85.54,0.6954,-1.155,-0.3669
7.213,-4.48,-91.98,-81.06,0.7188,-1.1477,-0.2693
7.228,-11.9,-103.32,-76.23,0.6978,-1.0711,-0.179
7.243,-22.68,-107.94,-70.7,0.6529,-0.9862,-0.1185
7.258,-32.27,-103.46,-66.71,0.5982,-0.9115,-0.0961
7.273,-40.74,-90.44,-64.54,0.5104,-0.8296,-0.121
7.288,-48.02,-68.04,-63.77,0.4426,-0.7583,-0.1493
7.303,-52.43,-46.27,-64.68,0.383,-0.6954,-0.1629
7.318,-55.72,-25.76,-66.08,0.3523,-0.6553,-0.1688
7.333,-56.91,-8.1899,-66.22,0.3596,-0.6231,-0.1693
7.348,-56.91,-0.21,-65.24,0.3801,-0.5948,-0.1712
7.363,-55.72,1.4,-62.58,0.3957,-0.6017,-0.1776
7.378,-53.41,-3.01,-58.87,0.447,-0.6265,-0.2064
7.393,-50.19,-10.71,-53.41,0.467,-0.6304,-0.2059
7.408,-46.55,-21.2099,-47.32,0.4787,-0.6553,-0.1971
7.423,-43.2599,-27.79,-41.44,0.4855,-0.7022,-0.2025
7.438,-39.41,-31.99,-34.93,0.4899,-0.6968,-0.2166
7.453,-35.28,-33.6,-29.26,0.507,-0.6846,-0.2332
7.467,-30.17,-32.34,-23.17,0.5128,-0.6534,-0.2435
7.498,-20.93,-23.03,-13.93,0.4709,-0.6119,-0.2869
7.511,-14.98,-12.04,-11.62,0.4518,-0.6505,-0.3074
7.525,-9.9399,-3.92,-9.7299,0.4548,-0.6846,-0.3298
7.541,-4.13,2.03,-7.28,0.4733,-0.7041,-0.3367
7.557,0.91,4.69,-4.48,0.4997,-0.7056,-0.3396
7.573,4.48,4.13,-0.77,0.5255,-0.708,-0.3513
7.588,9.7299,2.66,2.31,0.5319,-0.7324,-0.384
7.603,15.61,0.98,4.83,0.5153,-0.7451,-0.4211
7.619,20.44,-2.31,6.37,0.5084,-0.7578,-0.4357
7.636,25.83,-6.23,7.84,0.508,-0.7768,-0.4489
7.652,30.8,-10.99,10.29,0.5431,-0.793,-0.4665
7.669,36.12,-17.36,13.86,0.5758,-0.7851,-0.4987
7.686,42.14,-21.49,17.85,0.586,-0.7612,-0.527
7.7,48.72,-27.86,20.65,0.5753,-0.7144,-0.528
7.716,52.36,-31.57,22.68,0.5382,-0.6592,-0.507
7.734,54.88,-30.66,22.4,0.5163,-0.6548,-0.4923
7.751,56.28,-23.52,20.72,0.506,-0.6802,-0.508
7.769,58.24,-16.3799,18.55,0.5524,-0.7495,-0.545
7.786,60.62,-10.64,16.45,0.6085,-0.851,-0.5655
7.804,63.28,-8.68,14.91,0.6402,-0.8945,-0.5631
7.817,63.77,-10.29,13.3,0.6773,-0.9725,-0.5304
7.833,62.72,-14.14,10.08,0.6914,-1.0413,-0.5006
7.849,60.06,-20.51,6.51,0.6822,-1.0462,-0.4753
7.864,57.33,-26.32,0.21,0.6529,-0.9886,-0.4499
7.881,55.23,-31.5,-7.28,0.6168,-0.891,-0.4235
7.909,49.4199,-41.86,-25.76,0.4699,-0.6304,-0.3084
7.925,44.59,-46.7599,-38.15,0.4187,-0.5636,-0.2405
7.942,39.34,-52.15,-50.89,0.386,-0.5568,-0.1937
7.957,34.3,-54.81,-62.16,0.3806,-0.5792,-0.179
7.975,31.15,-58.66,-71.12,0.3943,-0.6021,-0.2005
7.993,30.66,-73.01,-78.33,0.4182,-0.6778,-0.2591
8.006,31.99,-81.76,-80.99,0.4504,-0.6817,-0.2386
8.022,32.48,-88.06,-80.92,0.5572,-0.7661,-0.1395
8.04,29.19,-74.41,-77.14,0.6607,-0.7315,-0.0034
8.058,32.97,-31.92,-82.95,0.2888,-0.7725,-0.3425
8.074,41.09,9.31,-84.49,0.4743,-0.6685,-0.2786
8.092,56.42,35.84,-76.93,0.6265,-0.6217,-0.2264
8.109,69.44,44.8,-68.6,0.6446,-0.7285,-0.2532
8.125,77.56,41.79,-59.36,0.7144,-0.7656,-0.12
8.143,80.99,29.33,-49.84,0.7481,-0.874,-0.121
8.161,83.0899,13.86,-47.18,0.6583,-0.8935,-0.1132
8.177,78.96,-1.54,-51.1,0.5938,-0.9354,-0.0712
8.195,71.26,-22.05,-63.35,0.5343,-0.9974,-0.0678
8.212,60.34,-49.4199,-70.14,0.9984,-1.1204,-0.0663
8.229,46.06,-63.28,-85.61,0.4045,-1.1155,-0.322
8.247,36.33,-74.41,-98.42,0.6378,-0.9964,-0.2078
8.264,27.65,-83.37,-109.06,0.6265,-0.9418,-0.2996
8.279,20.37,-80.57,-116.62,0.6319,-0.9028,-0.324
8.296,13.86,-72.03,-123.06,0.6856,-0.8388,-0.3147
8.31,9.59,-63.77,-126.35,0.7085,-0.7539,-0.3352
8.325,7.28,-56.56,-127.68,0.7881,-0.7339,-0.3757
8.339,5.7399,-52.29,-125.93,0.8613,-0.6954,-0.3894
8.355,5.6,-54.81,-122.01,0.9506,-0.6817,-0.4235
8.372,6.86,-64.82,-114.87,0.9725,-0.65,-0.4455
8.386,8.47,-78.75,-108.22,1.0091,-0.5826,-0.4489
8.402,9.52,-87.99,-101.15,1.0438,-0.4801,-0.4372
8.431,7.56,-79.45,-93.38,0.9281,-0.4011,-0.4738
8.449,6.72,-69.79,-91.42,0.9037,-0.322,-0.4977
8.466,7.63,-68.18,-88.48,0.893,-0.2269,-0.5148
8.479,9.38,-67.55,-86.5199,0.8422,-0.1571,-0.5402
8.494,10.92,-63.42,-84.07,0.7954,-0.079,-0.5519
8.509,12.04,-57.96,-82.81,0.7568,-0.04,-0.5655
8.524,13.02,-63.49,-81.41,0.7246,-0.0117,-0.5734
8.54,13.72,-87.43,-77.56,0.7788,0.0004,-0.5533
8.558,13.02,-108.57,-72.8,0.7271,-0.0531,-0.5582
8.573,12.04,-113.05,-70.21,0.6563,-0.0727,-0.566
8.59,9.45,-98.91,-69.93,0.5197,-0.14,-0.6095
8.606,6.65,-79.17,-70.14,0.5172,-0.1751,-0.5982
8.624,2.8,-61.32,-71.89,0.505,-0.1639,-0.6109
8.64,-4.2,-44.66,-73.5,0.5314,-0.1893,-0.6007
8.655,-9.38,-42.21,-74.48,0.6178,-0.2244,-0.5992
8.672,-16.17,-37.52,-73.78,0.7217,-0.2635,-0.5543
8.689,-27.86,12.11,-66.92,0.3006,-0.1903,-0.6856
8.704,-31.92,26.95,-66.5,0.7466,-0.1395,-0.6983
8.721,-31.78,25.41,-65.87,0.7705,-0.1464,-0.6958
8.749,-29.61,7.77,-64.61,0.8086,-0.1654,-0.7178
8.767,-26.11,0.98,-62.93,0.7681,-0.1727,-0.7393
8.784,-23.1,-5.25,-60.2,0.7666,-0.1854,-0.71
8.799,-20.37,-8.1899,-55.65,0.8003,-0.1449,-0.6739
8.815,-17.36,-2.03,-51.03,0.7476,-0.0936,-0.6588
8.831,-14.56,17.01,-47.6699,0.7432,-0.0902,-0.667
8.849,-11.4799,42.07,-47.25,0.6314,-0.1039,-0.6236
8.867,-9.31,58.94,-44.38,0.6851,-0.0707,-0.4596
8.882,-4.76,60.34,-42.49,0.6514,-0.1405,-0.5304
8.899,1.54,42.49,-36.89,0.8144,-0.1366,-0.5021
8.915,6.86,21.2099,-29.96,0.8369,-0.1664,-0.5163
8.933,13.79,-1.4,-23.73,0.8242,-0.1317,-0.4787
8.951,19.67,-8.33,-19.95,0.7856,-0.1459,-0.4435
8.969,23.94,-9.59,-19.4599,0.7978,-0.2137,-0.3899
8.987,27.44,-7.98,-20.37,0.7934,-0.2747,-0.3625
9.005,31.08,-7.98,-21.56,0.8203,-0.2854,-0.3874
9.023,0.63,-2.66,-15.19,0.8559,-0.0419,-2.6449
9.04,-6.58,7.7,-18.06,0.8354,-0.08,-0.4387
9.055,-6.65,-0.77,-17.29,0.8876,-0.0961,-0.4714
9.069,-1.96,-14.77,-16.24,0.7876,-0.1332,-0.5104
9.085,2.66,-31.01,-14.42,0.7925,-0.1215,-0.4631
9.098,1.47,-40.46,-12.6,0.8276,-0.1283,-0.4406
9.116,5.25,-49.77,-11.4799,0.7934,-0.1439,-0.4748
9.134,-1.19,-47.81,-13.86,0.8876,0.0082,-0.6461
9.151,-2.8,-41.44,-8.12,0.9013,0.0668,-0.6173
9.166,-0.14,-40.11,-5.04,0.7251,0.2225,-0.6387
9.184,2.94,-27.44,-4.34,0.5856,0.181,-0.5777
9.197,5.46,-19.67,-3.99,0.6983,-0.0034,-0.6431
9.211,4.9699,-13.3,-4.48,0.7461,0.0936,-0.5865
9.227,5.18,-6.16,-5.53,0.7066,0.0395,-0.6007
9.242,5.53,-4.69,-6.58,0.7373,0.06,-0.6822
9.26,5.95,-12.11,-5.32,0.7451,0.1112,-0.6509
9.274,6.23,-22.19,-2.31,0.7773,0.0976,-0.6529
9.292,6.51,-31.5,1.33,0.7744,0.0434,-0.649
9.321,3.78,-34.09,2.66,0.6627,0.0302,-0.6949
9.337,-0.28,-21.91,3.71,0.6339,0.037,-0.689
9.354,-2.31,13.79,3.71,0.5411,0.1551,-0.9198
9.37,-6.02,42.07,6.3,0.81,0.0185,-0.6182
9.386,-9.52,55.51,5.7399,0.7002,0.3318,-0.6217
9.403,-12.67,69.86,3.36,0.6309,0.2098,-0.6919
9.421,-18.55,85.26,-0.91,0.5304,0.0292,-0.6636
9.434,-20.51,92.61,-8.61,0.4343,0.0263,-0.67
9.448,-19.32,90.44,-9.59,0.7071,0.0839,-0.7471
9.463,-15.33,75.04,-8.75,0.7505,0.1473,-0.6568
9.477,-7.0,50.19,-3.22,0.9184,0.121,-0.6373
9.508,0.35,27.51,-5.88,0.7959,0.1356,-0.647
9.526,3.57,19.74,-8.26,0.8081,0.0692,-0.6012
9.54,5.46,14.91,-9.38,0.8066,0.0712,-0.5973
9.558,5.81,20.09,-9.8,0.7798,0.0951,-0.5655
9.576,5.11,19.6,-9.1,0.7964,0.1239,-0.5895
9.594,4.41,3.71,-7.84,0.8432,0.1263,-0.5773
9.609,4.13,-7.98,-7.77,0.8862,0.0649,-0.5387
9.624,2.73,-7.56,-9.66,0.8403,0.0219,-0.5909
9.641,1.19,-0.35,-11.97,0.8227,0.0312,-0.5211
9.658,1.33,1.19,-12.6,0.8335,0.0429,-0.4953
9.674,1.82,-11.13,-11.34,0.8354,0.0287,-0.4928
9.69,2.24,-22.19,-9.24,0.8437,0.0136,-0.4679
9.706,0.91,-14.35,-8.54,0.8198,0.0307,-0.444
9.719,-1.05,-1.82,-7.84,0.8315,0.0658,-0.4557
9.733,-1.89,9.24,-6.02,0.853,0.0829,-0.4621
9.748,-1.75,10.71,-3.64,0.8535,0.0814,-0.4718
9.764,-1.05,6.51,-1.47,0.8437,0.0751,-0.5006
9.781,-0.42,5.67,-0.63,0.8105,0.0512,-0.506
9.795,0.14,9.24,-1.05,0.7778,0.0653,-0.5324
9.809,1.82,7.42,-0.98,0.7842,0.0761,-0.5255
9.822,3.78,2.66,-0.91,0.79,0.0624,-0.5172
9.838,4.9,-5.88,-0.84,0.8081,0.0541,-0.5045
9.853,5.95,-6.23,-0.28,0.7837,0.0458,-0.4865
9.868,6.3,-1.26,-0.7,0.7905,0.0595,-0.5045
9.883,6.3,2.31,-1.05,0.7871,0.058,-0.5231
9.899,6.51,-1.05,-1.26,0.8144,0.0522,-0.5158
9.916,6.3,-5.32,-0.56,0.8095,0.0561,-0.5368
9.933,6.09,-5.6,1.33,0.8169,0.1107,-0.5665
9.949,6.23,-1.33,2.73,0.8232,0.1249,-0.5792
9.966,5.88,2.31,2.94,0.852,0.1107,-0.5709
9.983,4.41,-3.01,2.59,0.8798,0.079,-0.548
9.997,3.15,-8.68,2.1,0.873,0.0551,-0.5333
10.027,1.05,-8.33,0.35,0.8144,0.0414,-0.5602
10.043,0.21,-0.98,-0.35,0.8008,0.0688,-0.5816
10.059,-0.49,5.67,0.21,0.8032,0.0966,-0.5753
10.075,-1.05,8.12,0.98,0.8281,0.1015,-0.5514
10.088,-1.61,3.92,1.61,0.8496,0.0985,-0.5392
10.102,-1.96,-3.5,1.54,0.8408,0.0912,-0.5441
10.115,-2.45,-5.67,1.12,0.8144,0.0863,-0.5612
10.131,-3.57,1.89,0.14,0.7837,0.0863,-0.5621
10.149,-4.41,10.22,-0.07,0.7798,0.0829,-0.5509
10.178,-3.99,-6.72,1.05,0.8476,0.0805,-0.5241
10.194,-3.64,-11.2,0.84,0.832,0.08,-0.5358
10.211,-4.13,-1.54,-0.56,0.7944,0.0727,-0.5441
10.224,-4.34,6.02,-0.91,0.8052,0.0819,-0.5475
10.239,-3.78,3.22,0.35,0.8256,0.0932,-0.5363
10.253,-3.43,-4.41,1.89,0.8383,0.0902,-0.5397
10.269,-3.43,-5.67,1.26,0.8447,0.08,-0.549
10.286,-3.5,1.75,-0.21,0.83,0.0624,-0.5558
10.3,-3.15,12.88,-1.54,0.7905,0.0995,-0.5621
10.316,-3.01,20.37,-1.54,0.8247,0.1141,-0.5143
10.333,-2.94,21.35,-1.19,0.8447,0.101,-0.467
10.349,-1.26,9.17,-0.63,0.8881,0.1132,-0.4845
10.364,1.26,-9.31,-0.21,0.8896,0.119,-0.5314
10.379,3.99,-20.3,-0.35,0.8447,0.1073,-0.5421
10.396,4.41,-12.04,-0.98,0.79,0.1078,-0.5114
10.426,1.54,4.2,-0.63,0.8642,0.1102,-0.4587
10.439,1.61,-7.77,0.07,0.8813,0.1088,-0.5138
10.453,1.4,-14.63,0.28,0.852,0.0995,-0.5455
10.467,0.0,-4.48,-0.56,0.8149,0.0897,-0.5353
10.495,-2.8,16.24,-1.47,0.8832,0.1083,-0.4699
10.511,-2.17,-3.57,-1.05,0.9091,0.119,-0.5114
10.524,-1.75,-16.03,-0.7,0.8803,0.1,-0.5616
10.539,-2.45,-7.35,-1.89,0.8174,0.0878,-0.5758
10.555,-3.57,8.82,-3.5,0.8052,0.0795,-0.5172
10.571,-3.22,4.34,-3.08,0.8642,0.0917,-0.4767
10.602,-0.07,-51.31,-1.75,0.8559,0.0902,-0.5856
10.617,-1.68,-25.83,-3.92,0.7246,0.0707,-0.6607
10.634,-2.8699,16.3799,-6.09,0.7085,0.0653,-0.6832
10.652,2.1,17.85,-4.62,0.7934,0.0839,-0.6719
10.67,13.16,-24.5,-0.56,0.8418,0.08,-0.7032
10.686,26.67,-71.82,2.17,0.812,0.057,-0.7568
10.703,37.45,-73.08,0.28,0.6734,0.0273,-0.8305
10.719,47.46,-52.43,-2.03,0.528,-0.0527,-0.9218
10.735,57.89,-62.72,1.47,0.549,-0.1381,-0.9491
10.753,68.11,-119.42,9.24,0.547,-0.2962,-0.996
10.769,77.42,-170.8,20.44,0.4616,-0.4523,-1.0565
10.784,89.39,-181.02,30.73,0.2893,-0.5324,-1.1428
10.8,101.01,-165.2,42.56,0.2308,-0.5895,-1.3122
10.818,113.05,-175.0,61.39,0.264,-0.6573,-1.4361
10.836,129.78,-234.01,78.61,0.2825,-0.8076,-1.5254
10.852,145.0399,-301.56,90.23,0.1849,-0.9618,-1.6104
10.87,153.37,-296.31,97.37,0.0829,-1.0169,-1.6577
10.887,158.13,-262.99,105.21,0.0966,-1.0125,-1.7363
10.905,159.11,-265.3,122.01,0.201,-0.9803,-1.7953
10.923,160.23,-290.78,140.0,0.1942,-0.9808,-1.87
10.941,159.32,-280.84,152.39,0.1044,-1.013,-1.9324
10.959,149.52,-253.47,162.6799,0.0751,-1.036,-1.9905
10.974,137.55,-233.03,175.42,0.1629,-1.0013,-2.0183
10.989,126.07,-224.49,187.46,0.1864,-0.9442,-2.0671
11.004,114.31,-218.33,200.2,0.1859,-0.9662,-2.0842
11.019,98.7,-216.72,209.02,0.1527,-1.0096,-2.05
11.037,80.01,-215.95,217.21,0.1424,-1.0443,-2.0134
11.054,60.13,-211.68,220.85,0.0785,-1.054,-1.9876
11.07,41.23,-212.17,225.26,0.0888,-1.0096,-1.9232
11.086,23.3799,-214.69,231.42,0.1307,-0.9418,-1.8134
11.099,8.12,-210.0,235.2,0.101,-0.8954,-1.707
11.114,-7.0,-200.13,239.54,0.1171,-0.8827,-1.6108
11.127,-21.56,-188.65,241.08,0.0746,-0.8618,-1.5479
11.145,-36.61,-187.88,241.78,0.0688,-0.8408,-1.4166
11.16,-47.95,-205.94,243.39,0.0858,-0.7705,-1.2844
11.175,-54.32,-223.3,247.31,0.0912,-0.7056,-1.1009
11.193,-58.52,-222.53,250.18,0.0619,-0.6119,-0.9359
11.208,-60.34,-211.47,251.86,0.0517,-0.5704,-0.812
11.226,-63.98,-207.62,256.2,0.0883,-0.5592,-0.6597
11.244,-66.5,-224.7,263.41,0.1595,-0.487,-0.5485
11.262,-67.83,-243.81,272.37,0.1454,-0.3894,-0.3957
11.28,-63.56,-249.9,280.84,0.0985,-0.3518,-0.2937
11.298,-56.07,-220.71,287.84,-0.1205,-0.1459,-0.2122
11.311,-53.62,-184.87,289.73,-0.1366,-0.1654,-0.1459
11.328,-56.7,-130.76,294.14,-0.118,-0.3113,0.0048
11.342,-63.98,-95.2,303.45,-0.0502,-0.2566,0.0322
11.358,-73.01,-69.58,316.82,-0.038,-0.322,0.0248
11.389,-114.03,17.5,356.23,-0.0063,-0.2815,0.1708
11.405,-142.24,64.68,372.75,0.0014,-0.2196,0.1903
11.421,-168.35,94.85,388.0799,-0.0073,-0.2142,0.2332
11.439,-202.3,97.44,402.43,0.0131,-0.2044,0.2527
11.455,-229.18,84.91,414.19,0.0956,-0.1312,0.3655
11.473,-259.07,82.11,424.62,0.1532,-0.2239,0.528
11.489,-281.75,101.99,433.65,0.264,-0.4191,0.6958
11.506,-313.88,136.57,437.57,0.3567,-0.5841,0.9184
11.524,-342.02,166.32,437.92,0.485,-0.6885,1.1868
11.54,-366.59,185.78,434.14,0.5597,-0.8691,1.4469
11.557,-385.77,176.33,424.83,0.5382,-1.0165,1.85
11.574,-392.63,140.91,411.32,0.4972,-1.1038,2.1579
11.589,-386.26,104.93,403.27,0.6143,-1.4166,2.3921
11.607,-370.72,76.86,404.67,0.8208,-1.9627,2.6171
11.624,-348.04,49.28,416.85,1.3932,-2.274,3.0085
11.641,-313.25,29.05,436.66,1.7016,-3.1334,3.4594
11.657,-267.26,43.33,445.48,1.8763,-4.0323,3.4701
11.674,-200.83,82.46,452.69,2.2116,-5.243,3.292
11.689,-114.03,111.16,455.56,2.5405,-5.815,2.9831
11.707,78.12,118.44,453.25,2.5707,-6.5133,2.2184
11.722,285.6,78.82,440.02,2.3155,-6.8886,1.5757
11.74,665.9099,-23.45,383.6,2.1486,-6.931,-0.4514
11.757,1095.01,-125.44,308.56,2.2038,-6.544,-2.6561
11.775,1459.5,-176.12,164.5,2.5966,-7.7689,-4.2739
11.793,1778.84,-112.28,19.74,2.4282,-10.8921,-4.6067
11.809,674.45,832.3,-27.09,-1.6211,-14.3847,-9.7126
11.827,581.98,501.34,271.1099,9.3466,-9.554,0.9735
11.844,566.58,166.11,378.7,2.5068,-2.7084,-3.9406
11.857,441.98,150.4299,405.09,3.2154,-3.2559,-4.0601
11.874,333.2,384.65,407.19,1.9027,-2.2301,-4.3959
11.892,247.03,361.2,470.33,3.76,-2.0598,-4.4803
11.91,228.69,132.9299,519.12,3.801,-0.8066,-3.7351
11.928,277.06,52.08,510.02,3.8756,-0.0492,-3.6692
11.946,306.18,75.81,467.95,3.5311,-0.3782,-3.4096
11.962,312.34,60.9,411.18,3.456,-1.0482,-3.1763
11.979,291.97,-8.68,343.7,3.3886,-1.441,-2.9665
11.993,269.78,-80.5,282.52,3.3686,-1.4117,-2.9572
12.009,232.96,-127.82,219.59,3.3379,-0.6412,-2.967
12.025,228.55,-112.14,167.44,3.0319,-0.3679,-2.7879
12.043,205.03,-72.66,120.19,2.765,-0.4016,-2.5746
12.061,155.61,-59.5,87.99,2.5166,-0.7012,-2.1286
12.079,122.22,-59.01,59.64,2.236,-0.7271,-1.8592
12.093,101.36,-67.2699,47.6,2.0666,-0.5753,-1.5245
12.107,89.18,-82.32,43.2599,1.8905,-0.3596,-1.2575
12.121,83.0199,-93.8,42.49,1.7167,-0.2376,-1.0409
12.138,79.17,-87.22,41.93,1.5264,-0.1815,-0.8823
12.155,77.56,-59.08,40.25,1.3556,-0.1249,-0.7568
12.173,76.65,-19.39,36.54,1.2034,-0.1166,-0.6475
12.187,74.06,16.1,33.25,1.0848,-0.1844,-0.5704
12.204,70.42,15.19,33.18,1.1565,-0.2513,-0.4801
12.232,59.01,-36.54,32.48,1.1106,-0.3533,-0.3957
12.249,51.45,-45.0099,26.39,1.0116,-0.3723,-0.363
12.267,46.2,-38.71,15.89,0.9725,-0.4011,-0.3679
12.285,36.89,-30.94,5.18,0.9769,-0.4055,-0.3601
12.301,26.32,-31.36,-1.19,1.0043,-0.3762,-0.3562
12.314,20.3,-35.28,-7.07,0.9706,-0.3889,-0.344
12.328,12.95,-37.1,-12.88,0.9208,-0.3947,-0.3425
12.344,4.27,-36.33,-19.74,0.8735,-0.4123,-0.342
12.358,-3.92,-34.5099,-26.46,0.8398,-0.466,-0.3308
12.373,-12.32,-33.6,-31.71,0.8383,-0.549,-0.3284
12.389,-20.16,-33.53,-34.72,0.8427,-0.5973,-0.3372
12.402,-27.09,-35.0,-35.91,0.8515,-0.6534,-0.4948
12.419,-31.71,-31.08,-35.98,0.8339,-0.7022,-0.4006
12.433,-33.6699,-19.74,-36.12,0.7773,-0.7432,-0.4621
12.447,-33.6,-5.88,-35.63,0.7754,-0.8091,-0.5031
12.463,-31.71,10.36,-33.6699,0.7881,-0.8164,-0.5338
12.477,-28.63,18.76,-30.94,0.7881,-0.8408,-0.5553
12.493,-24.85,16.8,-24.57,0.8422,-0.8003,-0.5392
12.508,-22.4,8.82,-18.55,0.8266,-0.7256,-0.5221
12.536,-21.07,10.57,-12.46,0.6495,-0.5992,-0.5084
12.551,-20.93,24.5,-14.49,0.5514,-0.545,-0.5304
12.569,-19.95,44.59,-20.16,0.4889,-0.5377,-0.5475
12.586,-18.83,58.94,-26.88,0.4455,-0.4967,-0.5353
12.602,-17.36,64.19,-33.46,0.445,-0.5246,-0.5275
12.62,-16.3799,58.31,-40.04,0.4509,-0.5714,-0.5055
12.638,-14.7,44.94,-43.96,0.4606,-0.5904,-0.3752
12.654,-12.6,29.26,-46.62,0.4919,-0.628,-0.5148
12.672,-9.31,13.65,-47.74,0.5016,-0.6075,-0.5304
12.689,-5.88,1.75,-46.27,0.5621,-0.627,-0.5416
12.703,-3.22,-4.55,-44.1,0.5641,-0.6495,-0.5416
12.721,-1.12,-7.56,-40.39,0.5924,-0.6705,-0.5372
12.738,0.0,-8.89,-36.19,0.6212,-0.7163,-0.5192
12.756,0.07,-8.33,-31.78,0.6134,-0.6529,-0.5177
12.773,1.54,-6.51,-27.86,0.607,-0.6344,-0.5338
12.789,3.71,-4.69,-24.5,0.5895,-0.5494,-0.5319
12.805,6.37,-3.99,-21.56,0.5958,-0.5167,-0.5333
12.823,8.89,-4.48,-17.85,0.6056,-0.4977,-0.5343
12.836,11.41,-5.53,-14.98,0.628,-0.4865,-0.5294
12.852,13.3,-7.7,-12.11,0.6456,-0.4816,-0.5177
12.869,14.84,-12.18,-8.05,0.6749,-0.485,-0.5021
12.887,15.4,-19.18,-4.34,0.7036,-0.5011,-0.4709
12.904,14.56,-25.06,-0.7,0.7285,-0.4694,-0.4372
12.921,12.74,-24.99,1.4,0.7027,-0.4377,-0.4187
12.936,10.29,-20.16,2.73,0.7056,-0.4133,-0.4177
12.953,8.1899,-16.94,4.48,0.7329,-0.3889,-0.4216
12.97,6.58,-14.0,6.23,0.7402,-0.3689,-0.4435
12.986,5.46,-11.83,6.65,0.7427,-0.3972,-0.4455
12.999,4.06,-11.62,6.58,0.7544,-0.4392,-0.4265
13.014,1.47,-11.76,6.3,0.7593,-0.464,-0.3933
13.028,-2.24,-9.66,5.32,0.7427,-0.5138,-0.3777
13.044,-5.53,-6.16,4.2,0.7388,-0.5455,-0.365
13.062,-9.7299,-2.73,3.5,0.7446,-0.5441,-0.3742
13.076,-12.88,-1.54,4.06,0.7695,-0.5285,-0.3718
13.107,-14.35,-13.86,8.61,0.8042,-0.4601,-0.3581
13.12,-14.84,-18.83,10.71,0.7959,-0.4577,-0.3484
13.136,-15.4,-20.37,11.97,0.7744,-0.464,-0.3489
13.152,-15.96,-13.86,12.67,0.7534,-0.4884,-0.345
13.169,-16.52,-1.19,12.39,0.7339,-0.4557,-0.3464
13.183,-16.87,8.68,12.18,0.7568,-0.4772,-0.3386
13.199,-16.73,16.45,12.74,0.7695,-0.4572,-0.3342
13.212,-16.3799,19.53,13.51,0.7739,-0.444,-0.3313
13.228,-15.4,20.51,14.91,0.7847,-0.4509,-0.3294
13.245,-13.93,18.27,16.87,0.7895,-0.4489,-0.3376
13.262,-11.83,12.67,19.6,0.8037,-0.4553,-0.344
13.276,-9.38,6.93,22.12,0.8276,-0.4572,-0.3601
13.293,-5.7399,1.61,25.06,0.8374,-0.4328,-0.3791
13.309,-2.94,-3.99,27.58,0.8486,-0.4435,-0.3718
13.327,-0.91,-6.3,28.7,0.8339,-0.4655,-0.3581
13.354,-0.49,1.96,26.39,0.7944,-0.5285,-0.3601
13.367,-0.98,5.7399,24.5,0.7851,-0.4933,-0.3562
13.383,-1.68,8.82,22.89,0.7944,-0.4811,-0.345
13.399,-2.59,10.29,20.79,0.8012,-0.4748,-0.3396
13.415,-3.57,12.46,18.55,0.8003,-0.4718,-0.3469
13.43,-4.27,15.68,16.31,0.8012,-0.5001,-0.3611
13.446,-4.41,18.97,13.3,0.79,-0.5016,-0.3811
13.464,-3.71,21.77,9.38,0.7856,-0.5431,-0.4045
13.478,-2.66,21.56,6.3,0.7739,-0.5704,-0.4138
13.496,-1.12,16.87,3.15,0.7808,-0.5953,-0.4226
13.511,-0.35,9.66,0.98,0.7768,-0.5773,-0.4104
13.527,0.0,0.35,-0.56,0.7744,-0.566,-0.3933
13.545,-0.35,-10.64,-2.1,0.7622,-0.5504,-0.3864
13.563,-1.54,-19.8799,-3.5,0.7412,-0.5538,-0.3806
13.58,-2.94,-20.65,-4.41,0.7334,-0.5538,-0.3894
13.598,-3.92,-16.73,-4.34,0.7217,-0.5221,-0.4045
13.614,-3.92,-9.03,-3.64,0.711,-0.5031,-0.4318
13.629,-2.94,-0.21,-2.8,0.6958,-0.4889,-0.4684
13.647,-0.7,6.23,-1.89,0.6924,-0.5016,-0.4943
13.665,1.05,10.01,-1.05,0.6583,-0.5226,-0.5119
13.681,2.24,9.1,-1.12,0.6553,-0.5548,-0.508
13.699,2.59,5.81,-1.4,0.6368,-0.5724,-0.5163
13.717,2.45,1.19,-2.52,0.6226,-0.6012,-0.5231
13.733,2.17,-5.32,-3.57,0.6197,-0.5992,-0.5436
13.749,1.54,-13.44,-4.34,0.6256,-0.5856,-0.5665
13.762,0.56,-21.56,-5.04,0.6173,-0.586,-0.5665
13.777,-1.19,-27.86,-6.72,0.5973,-0.6017,-0.5729
13.794,-4.2,-30.73,-9.1,0.5773,-0.6324,-0.5743
13.809,-7.56,-31.08,-11.13,0.5592,-0.6441,-0.5851
13.823,-10.22,-30.24,-13.51,0.545,-0.6387,-0.5919
13.841,-11.9,-29.61,-15.96,0.5446,-0.6173,-0.5938
13.855,-13.58,-31.43,-16.94,0.5426,-0.5685,-0.5982
13.871,-13.58,-35.14,-17.99,0.5236,-0.5377,-0.607
13.887,-11.97,-42.56,-18.41,0.5177,-0.5026,-0.6046
13.903,-9.7299,-48.44,-18.48,0.5075,-0.4596,-0.5978
13.917,-7.35,-48.65,-19.6,0.4748,-0.4318,-0.5982
13.931,-3.85,-48.37,-20.02,0.4821,-0.4167,-0.5934
13.95,0.21,-51.38,-19.74,0.5011,-0.3894,-0.5846
13.964,3.22,-56.7,-18.76,0.5353,-0.3772,-0.5743
13.977,5.6,-62.72,-17.15,0.5577,-0.3835,-0.5651
13.993,8.26,-65.94,-16.17,0.5504,-0.3772,-0.5724
14.008,10.78,-65.45,-14.91,0.5509,-0.424,-0.5865
14.023,13.37,-62.44,-14.21,0.5685,-0.4865,-0.5992
14.041,16.66,-57.05,-12.53,0.589,-0.5084,-0.6178
14.072,25.69,-48.23,-7.14,0.6412,-0.4694,-0.6314
14.09,31.08,-43.61,-2.24,0.6597,-0.4455,-0.6065
14.107,34.23,-38.08,2.1,0.6466,-0.4392,-0.5821
14.124,36.89,-31.78,6.02,0.6422,-0.4723,-0.5641
14.142,38.71,-25.27,10.64,0.6446,-0.4826,-0.5592
14.159,40.95,-16.87,14.35,0.6446,-0.4611,-0.5616
14.176,42.49,-10.36,18.41,0.6509,-0.4352,-0.5465
14.191,43.61,-4.41,22.33,0.6436,-0.4099,-0.5368
14.204,44.45,-0.7,24.78,0.6319,-0.4118,-0.5285
14.22,44.8,3.29,27.72,0.627,-0.4191,-0.5216
14.235,44.8,6.3,29.19,0.6129,-0.445,-0.5182
14.252,44.73,9.38,30.59,0.6026,-0.4504,-0.5216
14.268,44.94,11.76,31.85,0.6124,-0.4733,-0.5319
14.294,46.27,16.17,33.95,0.6319,-0.5011,-0.549
14.311,46.48,9.38,35.84,0.6822,-0.526,-0.5455
14.326,45.71,-0.28,37.87,0.711,-0.5631,-0.5299
14.342,44.1699,-13.3,40.25,0.7305,-0.6036,-0.508
14.36,41.3,-21.35,41.65,0.7232,-0.6192,-0.487
14.377,35.49,-28.49,41.16,0.708,-0.6797,-0.4782
14.395,30.87,-24.15,38.64,0.6832,-0.6846,-0.4816
14.413,23.24,-14.77,35.7,0.6666,-0.7115,-0.4792
14.429,19.11,-8.75,33.46,0.6763,-0.7271,-0.4806
14.447,14.42,-5.81,31.85,0.6822,-0.7422,-0.4772
14.464,10.78,-7.42,32.2,0.708,-0.7378,-0.4865
14.482,7.0,-11.27,33.81,0.7393,-0.7393,-0.4792
14.499,4.06,-13.72,36.19,0.7339,-0.7393,-0.4831
14.516,1.4,-11.34,37.66,0.7071,-0.732,-0.4933
14.534,-0.77,-5.6,38.29,0.6919,-0.731,-0.4962
14.552,-4.55,4.48,36.96,0.647,-0.7188,-0.4923
14.568,-7.21,13.86,34.72,0.61,-0.7066,-0.4801
14.583,-10.99,19.6,31.85,0.5958,-0.6997,-0.4743
14.599,-14.49,22.19,28.84,0.587,-0.7056,-0.4723
14.613,-17.15,21.42,26.04,0.5777,-0.7085,-0.4782
14.631,-18.83,16.31,22.82,0.5709,-0.7154,-0.485
14.649,-20.58,11.27,20.09,0.5655,-0.7188,-0.4948
14.667,-21.49,-1.33,18.69,0.5714,-0.7437,-0.5006
14.685,-21.56,-9.45,18.55,0.589,-0.772,-0.5045
14.701,-21.2099,-12.81,18.48,0.5743,-0.7686,-0.5036
14.717,-21.07,-12.95,18.55,0.5655,-0.751,-0.4982
14.735,-21.14,-10.71,18.83,0.5509,-0.7363,-0.4914
14.753,-21.77,-4.2,18.69,0.5304,-0.6983,-0.488
14.771,-22.12,4.69,18.34,0.5114,-0.6724,-0.4948
14.789,-21.6299,14.98,16.94,0.4743,-0.606,-0.5153
14.804,-20.51,20.44,15.54,0.4562,-0.5919,-0.5226
14.822,-19.32,23.87,12.81,0.4392,-0.5914,-0.5324
14.84,-18.06,22.9599,10.08,0.446,-0.6119,-0.5377
14.853,-16.31,17.36,8.47,0.4479,-0.627,-0.5416
14.867,-15.26,12.39,6.16,0.4499,-0.6368,-0.5407
14.883,-14.7,7.35,3.57,0.4445,-0.6573,-0.5426
14.899,-14.49,2.17,0.84,0.4387,-0.6866,-0.5333
14.914,-15.26,-3.01,-1.89,0.4406,-0.7027,-0.5231
14.931,-16.8,-7.84,-4.9699,0.4284,-0.7388,-0.5221
14.947,-18.2,-9.59,-7.98,0.423,-0.7568,-0.5343
14.962,-19.04,-9.1,-10.64,0.4284,-0.7788,-0.5402
14.975,-19.53,-7.28,-12.32,0.4357,-0.7734,-0.548
14.991,-19.74,-3.64,-14.35,0.4309,-0.7637,-0.5582
15.006,-19.32,0.91,-16.03,0.4289,-0.7632,-0.5636
15.022,-18.9,4.55,-17.7099,0.4177,-0.7442,-0.566
15.037,-18.62,7.49,-19.6,0.4074,-0.7476,-0.5719
15.052,-18.2,8.47,-20.93,0.3977,-0.7383,-0.5719
15.067,-17.57,7.35,-21.91,0.3928,-0.7378,-0.5782
15.082,-16.66,5.67,-22.89,0.3869,-0.7066,-0.5797
15.1,-15.19,0.63,-22.9599,0.404,-0.6968,-0.5807
15.115,-14.14,-2.59,-22.68,0.4016,-0.6914,-0.5914
15.132,-12.6,-4.69,-22.33,0.404,-0.6963,-0.5919
15.146,-10.78,-6.02,-21.98,0.4016,-0.6924,-0.5973
15.177,-7.7,-5.88,-21.14,0.3991,-0.6758,-0.5938
15.193,-6.37,-7.0,-20.79,0.3986,-0.6573,-0.5943
15.211,-4.34,-10.36,-20.16,0.4079,-0.6446,-0.6075
15.226,-2.24,-13.72,-19.4599,0.4055,-0.628,-0.6075
15.242,-0.28,-16.66,-19.32,0.3943,-0.6178,-0.6026
15.259,1.33,-17.36,-19.25,0.3855,-0.6334,-0.609
15.275,3.08,-18.83,-19.04,0.4006,-0.6431,-0.6139
15.292,4.83,-22.89,-18.2,0.4206,-0.6651,-0.6192
15.308,6.65,-26.81,-16.94,0.4255,-0.6602,-0.6241
15.324,8.26,-29.4,-15.96,0.4313,-0.6646,-0.6309
15.342,9.38,-31.71,-14.07,0.444,-0.6529,-0.6236
15.36,9.66,-30.73,-12.25,0.4352,-0.6519,-0.6197
15.376,9.7299,-27.72,-10.78,0.4313,-0.6426,-0.6319
15.392,9.8,-24.15,-9.87,0.4226,-0.6422,-0.6324
15.409,9.38,-20.58,-9.17,0.4089,-0.6222,-0.6251
15.425,8.47,-17.15,-9.1,0.3938,-0.6056,-0.6139
15.441,7.07,-15.4,-9.1,0.4006,-0.6051,-0.6095
15.459,5.53,-16.03,-8.68,0.4021,-0.6129,-0.6158
15.475,3.99,-18.97,-7.49,0.4201,-0.6217,-0.6139
15.492,2.66,-22.33,-6.3,0.4245,-0.6163,-0.6187
15.509,1.12,-22.12,-5.39,0.4118,-0.5987,-0.6236
15.526,-0.91,-19.81,-5.04,0.4011,-0.5899,-0.6114
15.541,-2.94,-17.22,-4.83,0.3986,-0.5802,-0.5953
15.554,-5.7399,-14.35,-5.04,0.3933,-0.5743,-0.5782
15.57,-9.24,-9.45,-5.6,0.383,-0.5787,-0.5792
15.598,-13.51,0.42,-7.84,0.3498,-0.5065,-0.5602
15.613,-15.89,5.81,-8.75,0.3596,-0.5382,-0.5533
15.631,-17.78,12.25,-9.66,0.3542,-0.5241,-0.5485
15.646,-18.41,17.15,-9.7299,0.364,-0.5519,-0.5621
15.661,-17.64,19.8799,-9.66,0.3708,-0.5802,-0.5773
15.676,-15.61,22.9599,-9.52,0.363,-0.5826,-0.588
15.694,-13.23,25.06,-8.89,0.365,-0.5582,-0.5807
15.71,-8.33,25.83,-7.0,0.3899,-0.548,-0.5753
15.728,-1.96,23.45,-4.9,0.406,-0.5563,-0.6129
15.745,6.44,19.81,-2.45,0.3967,-0.5241,-0.6934
15.763,17.36,11.83,-0.07,0.3869,-0.4938,-0.7373
15.778,28.35,2.31,1.82,0.4084,-0.4909,-0.7368
15.796,37.1,-11.83,4.34,0.4318,-0.5241,-0.71
15.811,42.21,-18.48,5.11,0.4152,-0.5816,-0.688
15.827,44.1,-18.06,3.57,0.3782,-0.6231,-0.6827
15.845,44.59,-12.46,0.07,0.3684,-0.6666,-0.6866
15.862,43.82,-12.18,-2.45,0.403,-0.7207,-0.6895
15.879,42.0,-16.8,-4.41,0.4187,-0.7637,-0.6802
15.897,38.22,-23.03,-6.65,0.4104,-0.7881,-0.6548
15.915,32.62,-23.87,-11.2,0.3245,-0.8413,-0.6173
15.932,25.41,-21.84,-15.75,0.2859,-0.8613,-0.5802
15.947,18.27,-21.56,-18.62,0.2723,-0.8627,-0.5607
15.964,11.83,-22.05,-21.14,0.2444,-0.8471,-0.5314
15.98,6.37,-21.7,-21.84,0.2357,-0.8364,-0.5226
15.997,1.96,-18.97,-20.79,0.2327,-0.8344,-0.5123
16.015,-1.4,-14.42,-17.57,0.2391,-0.8042,-0.508
16.03,-4.83,-10.71,-13.16,0.2454,-0.7925,-0.4762
16.047,-8.68,-4.13,-8.47,0.2332,-0.8115,-0.4587
16.062,-12.39,0.91,-4.34,0.2205,-0.8252,-0.4611
16.076,-15.68,4.69,-0.14,0.2132,-0.812,-0.4596
16.092,-18.76,9.1,4.76,0.2093,-0.8198,-0.465
16.108,-22.26,13.72,9.9399,0.2122,-0.8017,-0.4782
16.124,-25.76,20.79,15.12,0.2,-0.7632,-0.4826
16.14,-28.91,28.98,19.32,0.1854,-0.7573,-0.4875
16.157,-31.99,36.47,24.43,0.1849,-0.7285,-0.4958
16.173,-34.37,41.09,29.61,0.2034,-0.7158,-0.508
16.191,-36.47,43.2599,35.91,0.2308,-0.7051,-0.527
16.208,-38.5,42.98,42.56,0.2527,-0.6832,-0.5548
16.226,-39.27,40.74,50.12,0.2581,-0.6553,-0.5714
16.244,-39.62,37.1699,57.96,0.2864,-0.6553,-0.5763
16.262,-40.25,36.4,64.26,0.2976,-0.6705,-0.5792
16.28,-40.81,39.41,70.28,0.3025,-0.6929,-0.5841
16.293,-42.63,45.0099,74.06,0.3172,-0.6763,-0.5875
16.307,-44.24,49.4199,77.0,0.3206,-0.6714,-0.5919
16.324,-46.48,51.59,79.5199,0.3289,-0.6524,-0.5895
16.341,-49.07,52.43,81.69,0.343,-0.6383,-0.5899
16.359,-51.52,57.4,82.81,0.3635,-0.6607,-0.6065
16.377,-55.51,67.48,83.72,0.3986,-0.7134,-0.6309
16.395,-57.82,79.94,84.8399,0.4343,-0.7847,-0.6739
16.411,-58.52,86.87,87.08,0.5148,-0.8125,-0.7027
16.427,-58.24,88.48,90.23,0.5724,-0.8022,-0.6993
16.444,-57.33,82.88,95.76,0.6324,-0.8022,-0.6753
16.462,-56.0,75.11,101.01,0.669,-0.8066,-0.671
16.479,-54.11,72.94,105.56,0.6861,-0.7949,-0.671
16.497,-51.87,75.53,110.11,0.6997,-0.7646,-0.6885
16.511,-47.18,84.35,112.98,0.7095,-0.667,-0.7036
16.529,-42.56,94.22,114.52,0.6914,-0.5324,-0.6934
16.546,-38.71,102.9,114.03,0.6861,-0.5172,-0.6802
16.562,-35.63,102.83,112.14,0.6783,-0.5338,-0.6636
16.576,-33.18,95.97,109.34,0.6812,-0.5494,-0.6714
16.591,-29.4,82.04,105.49,0.6812,-0.5597,-0.6841
16.606,-25.76,69.65,99.75,0.6661,-0.548,-0.6778
16.619,-22.33,59.08,95.2,0.6573,-0.5499,-0.6646
16.636,-19.81,51.87,87.78,0.648,-0.5382,-0.6109
16.65,-19.39,50.75,80.71,0.6202,-0.545,-0.5841
16.679,-23.66,55.65,65.8,0.588,-0.5485,-0.5084
16.697,-28.14,57.89,55.72,0.5685,-0.5499,-0.4962
16.714,-31.78,57.05,46.06,0.5533,-0.5241,-0.488
16.732,-34.23,52.78,38.64,0.5377,-0.4806,-0.4811
16.749,-35.49,45.57,32.62,0.5348,-0.4753,-0.4782
16.767,-35.14,37.03,27.86,0.5411,-0.4679,-0.4767
16.781,-33.88,31.85,25.48,0.5436,-0.485,-0.4845
16.799,-30.45,26.74,23.59,0.5524,-0.5387,-0.5128
16.816,-26.18,21.6299,22.47,0.5504,-0.5646,-0.5377
16.831,-21.28,15.4,22.26,0.5533,-0.5563,-0.546
16.846,-17.36,10.29,22.82,0.5538,-0.5494,-0.5382
16.861,-14.28,5.6,23.17,0.5494,-0.5685,-0.5265
16.877,-11.55,2.31,23.87,0.5431,-0.6007,-0.5343
16.895,-8.89,0.56,23.94,0.5231,-0.6222,-0.5587
16.913,-6.23,1.61,23.66,0.5143,-0.6949,-0.5831
16.931,-3.64,3.57,23.45,0.5123,-0.7344,-0.6021
16.949,-1.61,6.02,23.3799,0.4943,-0.749,-0.6148
16.966,1.33,6.72,23.8,0.4953,-0.7973,-0.6192
16.982,3.36,5.67,24.36,0.4889,-0.8076,-0.6222
16.999,6.09,3.29,25.48,0.4679,-0.7915,-0.6607
17.015,10.36,-0.14,27.16,0.4689,-0.8032,-0.711
17.033,15.12,-4.76,28.91,0.4645,-0.8139,-0.7163
17.051,19.53,-9.45,31.64,0.4777,-0.8047,-0.7046
17.069,21.77,-14.07,34.09,0.4909,-0.7554,-0.6866
17.084,21.84,-14.91,36.05,0.4626,-0.6685,-0.6588
17.1,20.3,-10.15,35.35,0.4148,-0.5787,-0.6553
17.118,17.08,1.96,31.71,0.3572,-0.4738,-0.6627
17.131,14.49,12.53,26.53,0.3294,-0.4958,-0.6802
17.148,10.85,20.58,19.74,0.3386,-0.5875,-0.7076
17.165,6.86,22.12,13.51,0.4021,-0.6949,-0.7256
17.181,3.29,16.52,8.1899,0.4435,-0.7729,-0.6958
17.197,-1.75,7.07,4.06,0.4753,-0.772,-0.6505
17.214,-11.13,-0.42,-0.56,0.4675,-0.7573,-0.5914
17.228,-20.51,-1.19,-5.11,0.4387,-0.7276,-0.5646
17.246,-26.95,1.12,-11.55,0.4104,-0.6929,-0.5597
17.263,-36.68,9.17,-19.18,0.3782,-0.6212,-0.5421
17.281,-42.98,13.79,-25.1299,0.3523,-0.5655,-0.5187
17.296,-46.41,15.19,-30.17,0.3616,-0.5182,-0.4948
17.312,-48.65,14.63,-34.02,0.3455,-0.4831,-0.4884
17.329,-48.58,10.85,-37.1,0.3459,-0.4665,-0.4914
17.345,-46.34,6.37,-38.99,0.3469,-0.464,-0.4958
17.362,-42.14,1.19,-40.53,0.3464,-0.4655,-0.5055
17.379,-35.98,-0.35,-41.86,0.3513,-0.4577,-0.5143
17.397,-29.75,1.89,-43.75,0.3474,-0.4572,-0.525
17.415,-22.19,5.88,-45.08,0.3601,-0.4723,-0.5289
17.433,-15.68,6.65,-45.64,0.3694,-0.4533,-0.506
17.451,-10.78,4.83,-45.85,0.3952,-0.4108,-0.4982
17.468,-6.23,2.31,-46.9,0.3962,-0.4167,-0.5158
17.484,-1.26,0.0,-48.44,0.4065,-0.4616,-0.5504
17.502,5.67,-5.25,-50.54,0.4455,-0.5446,-0.6056
17.519,11.62,-10.57,-51.87,0.5055,-0.6246,-0.6378
17.537,19.18,-20.3,-51.94,0.5753,-0.73,-0.6744
17.554,28.63,-30.38,-49.84,0.6768,-0.8671,-0.6719
17.572,33.18,-38.15,-47.39,0.7017,-0.8891,-0.647
17.589,36.2599,-37.45,-46.13,0.6875,-0.832,-0.5768
17.602,36.2599,-30.52,-46.34,0.6588,-0.7783,-0.5514
17.616,35.91,-21.2099,-47.25,0.6402,-0.7505,-0.5553
17.63,36.19,-14.56,-48.79,0.6319,-0.7622,-0.5758
17.648,37.94,-13.79,-50.47,0.6422,-0.7773,-0.5978
17.666,42.4199,-26.95,-50.05,0.6802,-0.7978,-0.6139
17.684,48.86,-47.25,-47.6699,0.7158,-0.791,-0.5938
17.701,52.0099,-63.14,-44.87,0.7393,-0.7842,-0.5289
17.717,51.66,-69.51,-43.12,0.7183,-0.7564,-0.4704
17.732,48.16,-65.87,-42.49,0.6905,-0.7217,-0.4313
17.749,43.61,-53.69,-42.84,0.6402,-0.6763,-0.4196
17.764,40.81,-41.93,-43.61,0.6148,-0.647,-0.4533
17.782,40.39,-32.83,-43.47,0.607,-0.6202,-0.4855
17.8,41.37,-31.99,-42.91,0.5758,-0.5929,-0.4748
17.816,41.79,-35.07,-42.0,0.5592,-0.5724,-0.4294
17.833,39.69,-37.66,-41.23,0.5304,-0.5836,-0.3972
17.851,36.33,-39.27,-40.81,0.505,-0.6021,-0.3786
17.866,32.13,-41.23,-41.02,0.4797,-0.5909,-0.3708
17.881,29.47,-43.12,-41.44,0.4509,-0.5748,-0.3918
17.896,27.23,-44.66,-42.0,0.4299,-0.5631,-0.406
17.911,25.41,-45.99,-42.0,0.4362,-0.566,-0.4162
17.927,24.36,-49.63,-40.53,0.4592,-0.5856,-0.4191
17.945,23.24,-54.04,-36.89,0.4709,-0.6124,-0.4294
17.963,22.68,-60.2,-31.15,0.5221,-0.6422,-0.4494
17.98,22.05,-64.12,-25.76,0.5387,-0.6583,-0.4426
17.998,20.86,-58.17,-20.65,0.5353,-0.6758,-0.4406
18.014,19.8799,-45.15,-16.3799,0.528,-0.7022,-0.4582
18.029,19.11,-33.18,-13.09,0.5411,-0.751,-0.4919
18.046,19.39,-22.68,-8.1899,0.5631,-0.8349,-0.5265
18.062,20.51,-18.06,-3.43,0.5919,-0.8705,-0.5348
18.08,22.05,-16.52,3.57,0.6017,-0.8413,-0.5304
18.098,24.01,-13.58,9.7299,0.5841,-0.7193,-0.5206
18.116,27.79,-6.86,13.09,0.5353,-0.6573,-0.5465
18.134,32.55,-0.7,13.72,0.5006,-0.6285,-0.589
18.152,37.8,1.68,12.11,0.4518,-0.607,-0.6104
18.17,42.14,1.4,8.54,0.4484,-0.6378,-0.6143
18.188,45.5,-2.45,4.55,0.4689,-0.7251,-0.6012
18.206,45.57,-15.12,-0.91,0.5041,-0.8671,-0.5851
18.224,41.16,-26.74,-6.44,0.545,-0.912,-0.5397
18.242,33.04,-31.43,-15.68,0.5246,-0.9291,-0.486
18.256,22.9599,-25.55,-25.06,0.5041,-0.9189,-0.4387
18.272,9.31,-12.95,-37.87,0.4811,-0.9237,-0.4187
18.29,-6.37,9.87,-52.71,0.4328,-0.932,-0.4006
18.304,-17.08,25.62,-65.03,0.4543,-0.9516,-0.3791
18.322,-28.63,47.46,-80.85,0.4435,-0.9354,-0.3552
18.337,-37.8,62.09,-91.0,0.4592,-0.9052,-0.3474
18.354,-43.05,69.93,-100.5899,0.4733,-0.8637,-0.3562
18.372,-43.47,63.84,-104.93,0.4382,-0.75,-0.3703
18.389,-39.55,42.28,-102.76,0.751,-0.6973,-0.3435
18.406,-35.7,15.89,-93.1,0.7783,-0.6168,-0.3474
18.424,-30.52,-7.07,-85.12,0.8071,-0.6456,-0.4074
18.44,-31.29,-12.46,-82.39,0.7056,-0.6344,-0.426
18.457,-35.56,-3.85,-87.29,0.6797,-0.6778,-0.4226
18.474,-41.72,12.88,-98.8399,0.71,-0.731,-0.4406
18.49,-47.6,30.31,-111.02,0.7344,-0.6905,-0.4538
18.506,-51.1699,46.55,-122.01,0.7583,-0.649,-0.444
18.524,-53.06,54.53,-135.59,0.7866,-0.6065,-0.4206
18.542,-50.54,53.27,-145.81,0.7983,-0.5202,-0.4265
18.558,-44.1,42.84,-149.66,0.8344,-0.4684,-0.4279
18.576,-37.45,18.97,-148.89,0.8749,-0.424,-0.4113
18.594,-27.79,1.96,-144.55,0.8579,-0.4021,-0.3747
18.612,-20.93,-5.04,-139.86,0.8003,-0.3991,-0.3577
18.626,-16.31,-9.24,-134.61,0.8208,-0.4084,-0.3586
18.643,-10.71,-15.96,-126.14,0.8452,-0.405,-0.3811
18.658,-5.7399,-17.85,-116.34,0.8535,-0.3464,-0.3977
18.676,0.28,-10.36,-105.84,0.8359,-0.281,-0.4118
18.691,4.2,5.04,-96.67,0.7993,-0.2191,-0.4343
18.707,8.96,14.98,-87.85,0.8188,-0.16,-0.4514
18.725,14.91,21.14,-79.38,0.8125,-0.1215,-0.5026
18.742,20.79,25.2,-70.98,0.8105,-0.0156,-0.5568
18.759,25.41,21.84,-65.03,0.8271,0.0556,-0.5841
18.777,28.07,11.06,-60.41,0.8213,0.0956,-0.5841
18.791,27.93,1.75,-58.38,0.7812,0.1166,-0.5773
18.806,25.97,-2.31,-58.24,0.7402,0.1571,-0.5802
18.824,21.91,1.26,-59.36,0.6846,0.2117,-0.5943
18.842,18.06,8.47,-61.74,0.647,0.2952,-0.5978
18.859,16.24,12.04,-62.23,0.6222,0.3611,-0.5909
18.876,16.17,13.93,-59.85,0.6202,0.4055,-0.5978
18.894,19.11,13.37,-54.46,0.6114,0.4323,-0.588
18.91,26.25,11.55,-46.97,0.6065,0.4157,-0.6021
18.928,33.95,2.38,-38.0099,0.5904,0.3703,-0.608
18.946,42.7,-16.59,-29.75,0.5929,0.302,-0.6041
18.959,47.39,-32.48,-23.87,0.5709,0.2459,-0.6075
18.974,52.92,-42.98,-19.95,0.569,0.2005,-0.6109
18.991,55.51,-47.88,-17.01,0.5987,0.1503,-0.6065
19.008,57.12,-43.75,-17.29,0.6139,0.0844,-0.5919
19.024,56.35,-37.03,-18.69,0.6417,0.018,-0.5724
19.039,55.02,-31.08,-21.07,0.6885,-0.0043,-0.5602
19.07,-7.28,-45.22,-14.49,0.2034,-1.0135,1.1468
19.087,-10.64,9.38,-11.9,1.0496,0.4806,-0.3538
19.104,-8.82,14.0,-3.99,0.8291,0.1947,-0.5099
19.121,-2.24,-19.8799,8.4,0.791,0.2313,-0.6173
19.139,0.49,-24.5,12.6,0.813,0.162,-0.6226
19.156,1.61,-2.8,8.75,0.8169,0.1307,-0.5646
19.172,2.8,6.23,6.23,0.8466,0.1083,-0.5211
19.19,6.02,0.07,4.48,0.8618,0.1132,-0.528
19.206,9.8,-1.26,0.77,0.8198,0.0976,-0.5363
19.222,10.71,1.68,-4.83,0.8032,0.1293,-0.589
19.239,9.45,1.47,-6.79,0.7544,0.1693,-0.5914
19.252,8.75,1.12,-6.93,0.7427,0.1786,-0.6007
19.266,9.38,1.33,-6.93,0.7232,0.1556,-0.5704
19.28,10.85,0.91,-7.0,0.7388,0.1195,-0.5612
19.296,11.62,-0.63,-7.0,0.751,0.0961,-0.5665
19.314,11.9,-1.96,-7.14,0.7534,0.081,-0.586
19.33,11.41,0.56,-8.68,0.7593,0.079,-0.609
19.344,11.2,3.64,-10.78,0.7842,0.0814,-0.6031
19.36,11.76,4.83,-11.76,0.792,0.0897,-0.586
19.389,11.83,6.02,-11.27,0.811,0.1356,-0.5904
19.407,11.9,13.51,-11.34,0.831,0.1571,-0.5953
19.424,13.3,15.47,-11.9,0.8691,0.162,-0.5816
19.441,15.19,13.79,-11.76,0.8613,0.1595,-0.547
19.457,16.45,9.8,-11.06,0.8359,0.1498,-0.5543
19.475,16.1,6.79,-10.5,0.8125,0.1376,-0.5704
19.493,14.63,4.2,-10.57,0.792,0.101,-0.5607
19.511,12.46,2.8,-10.29,0.793,0.0956,-0.5529
19.529,11.27,0.21,-9.59,0.7773,0.1093,-0.5494
19.542,9.52,-2.31,-8.4,0.7798,0.1122,-0.5421
19.556,7.21,-1.75,-7.98,0.77,0.1156,-0.5616
19.572,4.2,2.03,-7.91,0.7725,0.1015,-0.5724
19.589,1.12,6.72,-8.61,0.792,0.1039,-0.567
19.604,-0.21,7.21,-8.75,0.8086,0.1327,-0.5568
19.618,0.0,2.94,-7.98,0.8037,0.1454,-0.5587
19.649,-1.26,6.3,-7.7,0.7847,0.1307,-0.5807
19.666,-2.73,13.86,-8.05,0.8032,0.1424,-0.5841
19.683,-1.96,6.16,-7.77,0.8378,0.1595,-0.5856
19.7,0.35,-8.68,-6.86,0.8515,0.1566,-0.5694
19.718,1.12,-9.9399,-7.0,0.8213,0.139,-0.5958
19.733,0.42,2.17,-7.77,0.7842,0.1478,-0.63
19.749,0.49,7.42,-7.14,0.7949,0.159,-0.6353
19.762,2.52,0.84,-5.7399,0.7851,0.1439,-0.6285
19.776,5.81,-7.77,-2.73,0.7568,0.141,-0.6407
19.792,8.4,-0.91,0.77,0.6832,0.1141,-0.6617
19.807,12.04,16.73,3.64,0.6495,0.0756,-0.6866
19.823,35.21,28.0,9.31,0.6251,0.0161,-0.7729
19.836,28.49,5.32,17.29,0.5748,-0.0946,-0.7803
19.85,47.32,-51.31,29.47,0.467,-0.22,-0.8744
19.864,67.13,-111.37,40.25,0.3367,-0.3952,-1.0492
19.895,96.18,-159.67,53.62,0.1634,-0.667,-1.3093
19.913,111.16,-181.16,63.77,0.202,-0.7617,-1.4478
19.931,129.2899,-254.66,76.23,0.2547,-0.8549,-1.5655
19.949,140.07,-299.32,90.0899,0.243,-0.9559,-1.6128
19.966,146.16,-301.21,99.82,0.1332,-1.054,-1.6313
19.983,148.12,-287.84,110.74,0.0956,-1.1155,-1.6943
19.998,151.69,-289.17,126.0,0.1703,-1.0955,-1.8148
20.013,156.66,-299.04,140.35,0.1673,-1.0936,-1.9178
20.029,159.88,-286.79,153.3,0.1054,-1.1297,-1.9944
20.047,155.82,-264.81,166.53,0.0878,-1.217,-2.0666
20.061,149.1,-259.42,176.26,0.1171,-1.2644,-2.1491
20.076,142.1,-267.12,190.89,0.1546,-1.2756,-2.2491
20.092,133.07,-267.68,203.84,0.1088,-1.2814,-2.316
20.109,119.49,-243.6,216.3,0.0907,-1.2873,-2.3302
20.127,97.0199,-225.82,231.07,0.1263,-1.3112,-2.3248
20.143,73.99,-223.79,246.54,0.1683,-1.3293,-2.3131
20.16,51.87,-225.96,260.4,0.1678,-1.3224,-2.2828
20.177,29.96,-214.06,269.92,0.1327,-1.2585,-2.2135
20.195,3.36,-208.32,274.82,0.1878,-1.2414,-2.0769
20.212,-19.53,-226.94,280.28,0.3006,-1.1902,-1.8836
20.227,-36.68,-238.98,285.74,0.3172,-1.0862,-1.7343
20.245,-54.46,-232.4,289.17,0.3235,-0.9706,-1.5279
20.263,-65.8,-205.1,287.63,0.3186,-0.8847,-1.4078
20.281,-79.87,-192.36,283.78,0.3367,-0.7617,-1.1624
20.294,-85.47,-206.57,285.39,0.4601,-0.6856,-0.9886
20.31,-86.45,-236.88,290.85,0.5226,-0.5953,-0.7856
20.324,-83.65,-250.46,297.15,0.484,-0.4899,-0.6714
20.352,-72.31,-230.16,307.65,0.3991,-0.4162,-0.3513
20.367,-70.35,-215.53,314.02,0.4738,-0.3699,-0.1966
20.381,-70.7699,-199.01,320.53,0.426,-0.3269,-0.1176
20.398,-75.88,-169.26,327.18,0.3401,-0.2952,-0.0024
20.416,-83.86,-139.51,331.45,0.3772,-0.3376,0.0297
20.433,-101.64,-85.61,335.02,0.2776,-0.2522,0.1439
20.451,-116.2,-36.47,339.01,0.3118,-0.159,0.1659
20.469,-133.63,6.51,350.21,0.4211,-0.0995,0.2659
20.487,-162.26,39.48,364.0,0.4289,-0.1307,0.2849
20.505,-187.32,65.5899,379.4,0.4694,-0.0248,0.465
20.522,-209.44,86.45,392.63,0.3879,-0.0522,0.5314
20.54,-226.66,102.83,406.7,0.4431,-0.0932,0.5734
20.558,-244.09,137.2,415.94,0.4006,-0.1093,0.6588
20.575,-262.78,161.98,418.04,0.4016,-0.203,0.8071
20.592,-278.25,190.05,416.3599,0.4074,-0.2757,1.0526
20.61,-293.37,195.51,415.38,0.5187,-0.3406,1.4298
20.628,-304.15,181.58,413.77,0.5143,-0.3386,1.5557
20.646,-307.44,143.5,413.84,0.5856,-0.5694,1.7665
20.66,-301.14,109.55,419.93,0.7651,-0.7959,1.8997
20.676,-294.28,76.44,436.94,1.0038,-1.2824,2.2208
20.692,-292.25,61.04,458.85,1.2029,-1.8861,2.5258
20.709,-283.3599,54.25,482.02,1.5474,-2.5219,2.643
20.727,-253.4,52.78,508.76,1.8651,-3.2827,2.602
20.743,-207.34,60.69,542.36,2.5171,-4.248,2.4912
20.759,-139.02,103.81,581.42,2.9938,-5.0791,2.3009
20.776,-45.29,179.34,609.9099,3.189,-5.8535,2.0905
20.791,69.58,180.74,620.9,3.108,-6.504,1.8231
20.806,270.2,112.91,606.9699,2.5473,-6.8646,1.2932
20.822,522.13,-47.88,558.18,2.154,-6.8915,0.1971
20.84,979.65,-295.05,440.3,2.3585,-7.0921,-1.8709
20.853,1345.61,-451.43,303.87,2.7235,-8.4882,-3.2896
20.867,1643.88,-484.75,83.51,3.0817,-11.2122,-5.1557
20.895,782.32,1270.78,-254.38,-0.8862,-8.475,0.973
20.91,1073.1,-403.76,89.74,8.3638,-5.2006,-1.9949
20.926,1100.8199,-865.41,-84.7,-1.9051,-6.5021,-4.045
20.941,912.94,-37.24,-381.0799,-2.3223,-6.3493,-6.0175
20.957,736.19,437.43,-368.06,0.4723,-5.8808,-5.4529
20.975,603.82,-28.42,-234.64,0.8808,-3.6424,-7.0774
20.992,479.92,-82.46,-226.73,-1.8441,-2.2999,-6.8549
21.009,367.78,165.76,-239.05,-2.4439,-1.1736,-6.4416
21.027,295.96,139.3,-189.42,-1.6621,-0.79,-5.9301
21.041,249.9,29.54,-143.64,-1.7533,-0.5929,-5.3035
21.059,191.38,-27.37,-105.84,-2.0369,-0.5455,-4.6852
21.076,147.49,-7.98,-84.14,-1.909,-0.6309,-4.0665
21.092,119.7,21.42,-62.93,-1.5879,-0.5529,-3.5965
21.107,112.49,41.02,-44.03,-1.1912,-0.4372,-3.2125
21.124,123.2,40.53,-22.26,-1.0096,-0.4128,-3.0304
21.139,137.13,6.51,2.66,-0.6744,-0.5221,-2.7503
21.156,151.34,-63.77,30.87,-0.3952,-0.61,-2.4336
21.171,158.55,-77.35,52.0099,-0.3913,-0.6993,-2.1769
21.187,155.96,-7.7,67.3399,-0.466,-0.6148,-1.9032
21.205,147.49,103.04,79.8,-0.3513,-0.5216,-1.746
21.223,142.1,151.55,94.92,-0.2708,-0.5446,-1.7099
21.237,137.62,89.39,112.35,0.1454,-0.4313,-1.5928
21.254,132.09,-12.46,128.8,0.2396,-0.4728,-1.401
21.271,120.47,-88.55,135.38,0.1273,-0.484,-1.2346
21.286,104.0899,-63.84,133.56,-0.0043,-0.4836,-1.1389
21.301,87.85,-24.92,127.33,-0.0512,-0.4245,-1.0721
21.317,69.79,23.66,122.22,-0.0048,-0.3357,-1.0238
21.332,57.89,42.28,120.89,0.0927,-0.2571,-1.0189
21.346,49.21,31.99,124.81,0.2371,-0.2015,-1.0111
21.364,42.98,3.85,133.84,0.304,-0.2054,-1.0047
21.382,35.0,-37.94,141.47,0.3411,-0.2342,-0.9711
21.399,23.59,-39.55,146.16,0.3201,-0.284,-0.9354
21.416,11.97,-15.68,147.77,0.2654,-0.3323,-0.9418
21.432,-2.59,23.52,147.35,0.2552,-0.3811,-0.9457
21.45,-20.44,69.0199,145.81,0.2454,-0.4582,-0.9437
21.466,-39.83,89.18,144.06,0.2903,-0.4904,-0.9545
21.481,-58.45,95.3399,142.03,0.2815,-0.4933,-0.9667
21.497,-73.29,93.66,137.34,0.2547,-0.4831,-0.9672
21.514,-91.14,92.26,132.09,0.2576,-0.5109,-0.9681
21.531,-105.42,99.26,126.21,0.2357,-0.5802,-0.9511
21.548,-117.81,110.39,120.12,0.2649,-0.586,-0.9169
21.564,-127.54,122.08,115.92,0.2591,-0.5626,-0.8969
21.58,-134.12,133.56,110.6,0.2298,-0.488,-0.8876
21.598,-136.57,145.81,101.5,0.1376,-0.4416,-0.8945
21.616,-136.22,148.61,93.17,0.1361,-0.4104,-0.8852
21.634,-132.44,145.95,86.94,0.1405,-0.3874,-0.8974
21.652,-122.57,146.72,79.1,0.0634,-0.2552,-0.9379
21.668,-112.21,152.53,70.35,-0.0097,-0.1927,-0.9633
21.684,-101.22,157.57,62.3,-0.0517,-0.1473,-0.9433
21.7,-91.7,159.25,52.71,-0.0702,-0.1434,-0.9042
21.714,-85.12,157.01,45.08,-0.0712,-0.1439,-0.8993
21.729,-75.32,151.2,38.43,-0.0644,-0.1117,-0.9184
21.742,-65.66,143.57,32.83,-0.0639,-0.0566,-0.9564
21.756,-55.02,135.45,27.72,-0.0644,-0.0053,-0.9842
21.774,-46.06,127.26,22.9599,-0.0478,-0.0122,-0.9882
21.789,-34.37,121.59,18.9,-0.0629,-0.0756,-0.9462
21.817,-20.79,108.36,11.76,-0.0453,-0.1995,-0.9711
21.834,-14.07,102.2,7.91,-0.038,-0.1878,-0.9867
21.852,-8.89,91.56,3.57,-0.0312,-0.1864,-0.9711
21.869,-4.2,77.21,1.4,0.0126,-0.1986,-0.9535
21.884,-0.63,63.0,0.77,0.0502,-0.22,-0.9057
21.901,1.47,45.57,0.98,0.0844,-0.2161,-0.8569
21.917,2.8699,32.2,1.12,0.0897,-0.1883,-0.8349
21.934,3.71,25.9,0.7,0.0771,-0.1659,-0.8139
21.952,5.53,23.52,-0.35,0.0814,-0.1517,-0.8115
21.969,7.91,19.11,-0.49,0.1132,-0.1507,-0.8086
21.982,10.15,12.46,0.35,0.1473,-0.1683,-0.791
21.999,12.46,0.07,3.99,0.1825,-0.1937,-0.7637
22.014,14.14,-12.46,7.56,0.1995,-0.1883,-0.7583
22.044,20.44,-29.54,13.51,0.1732,-0.1263,-0.7622
22.061,23.87,-31.92,15.96,0.1629,-0.1673,-0.7398
22.077,26.32,-33.74,18.27,0.18,-0.1927,-0.7183
22.092,28.35,-37.1,21.7,0.2122,-0.2303,-0.7193
22.106,30.8,-39.55,25.34,0.2337,-0.2513,-0.7178
22.124,34.16,-41.72,30.94,0.2522,-0.2552,-0.7393
22.142,40.81,-45.71,36.12,0.2679,-0.2415,-0.7476
22.159,49.91,-50.4,42.84,0.3025,-0.2196,-0.7642
22.177,58.52,-50.82,48.3,0.2928,-0.1981,-0.7744
22.195,63.42,-45.64,53.06,0.2845,-0.201,-0.7754
22.211,71.05,-39.27,57.68,0.3191,-0.2054,-0.7837
22.229,76.23,-34.09,63.84,0.344,-0.2342,-0.792
22.246,79.94,-30.66,68.74,0.3567,-0.2318,-0.8242
22.261,82.53,-26.04,72.31,0.3347,-0.2435,-0.8491
22.276,84.91,-19.18,73.78,0.3157,-0.2688,-0.8813
22.292,86.17,-10.29,73.99,0.323,-0.3635,-0.9228
22.309,86.87,-3.43,74.3399,0.3547,-0.4113,-0.9457
22.324,86.8,-0.07,74.41,0.3801,-0.446,-0.9667
22.341,86.03,-0.21,74.41,0.4157,-0.4514,-0.9711
22.358,84.35,-3.57,74.2,0.4323,-0.4343,-0.973
22.374,81.41,-6.3,72.38,0.4226,-0.4133,-0.9603
22.392,76.37,-8.61,69.23,0.4187,-0.4411,-0.9603
22.409,70.56,-8.26,63.56,0.4182,-0.4533,-0.9589
22.425,64.54,-7.21,58.52,0.4313,-0.4816,-0.9735
22.441,58.8,-6.16,52.78,0.445,-0.4943,-0.972
22.459,53.55,-4.83,46.48,0.4694,-0.5075,-0.9667
22.476,47.6,-2.94,41.37,0.4845,-0.5421,-0.9472
22.492,42.56,-0.28,35.91,0.4909,-0.5509,-0.9228
22.507,35.7,2.59,31.36,0.4899,-0.5699,-0.9037
22.523,28.14,6.93,25.2,0.4816,-0.5529,-0.8803
22.541,20.3,12.32,18.06,0.4694,-0.5485,-0.8515
22.559,10.71,16.31,10.85,0.4665,-0.5387,-0.8164
22.577,2.59,21.7,5.04,0.4504,-0.5377,-0.7925
22.594,-5.53,25.62,-0.56,0.4494,-0.5416,-0.7739
22.608,-10.29,28.14,-4.76,0.4484,-0.5519,-0.769
22.626,-14.07,29.54,-9.31,0.4562,-0.5607,-0.7656
22.644,-16.3799,28.49,-12.95,0.4562,-0.5699,-0.7598
22.662,-17.22,27.16,-15.54,0.4592,-0.569,-0.7617
22.676,-17.15,25.9,-17.43,0.4494,-0.5982,-0.751
22.694,-16.59,26.39,-20.16,0.4318,-0.587,-0.7378
22.712,-15.68,28.56,-22.54,0.4265,-0.5958,-0.7217
22.728,-14.7,30.17,-24.99,0.4128,-0.5953,-0.7124
22.746,-13.86,31.85,-27.72,0.4006,-0.5938,-0.71
22.759,-12.25,31.92,-29.75,0.4021,-0.6002,-0.7105
22.774,-10.43,30.73,-31.85,0.3894,-0.5909,-0.7237
22.79,-8.26,29.68,-34.16,0.3699,-0.5934,-0.73
22.804,-7.21,28.07,-36.82,0.3674,-0.606,-0.7178
22.823,-6.44,26.6,-39.34,0.363,-0.6334,-0.711
22.84,-5.53,25.48,-41.09,0.3557,-0.6627,-0.7139
22.856,-5.04,23.59,-42.77,0.3533,-0.6529,-0.7188
22.874,-3.57,20.58,-44.24,0.342,-0.6339,-0.7183
22.892,-2.1,17.85,-45.64,0.3196,-0.6134,-0.6919
22.908,-1.12,14.0,-47.04,0.3152,-0.6285,-0.6797
22.926,0.42,10.36,-48.09,0.3093,-0.6353,-0.6807
22.944,3.71,2.94,-48.02,0.3269,-0.6631,-0.689
22.962,7.98,-1.68,-47.32,0.3162,-0.6661,-0.6934
22.978,13.16,-5.32,-46.55,0.3128,-0.6656,-0.6812
22.996,19.25,-8.82,-45.78,0.3054,-0.6446,-0.668
23.011,23.17,-12.6,-44.24,0.3089,-0.6241,-0.6334
23.026,27.02,-18.76,-42.7,0.2971,-0.6051,-0.609
23.042,29.75,-23.59,-40.81,0.3015,-0.5934,-0.5763
23.059,32.97,-30.59,-38.71,0.2981,-0.5777,-0.5587
23.077,35.77,-34.09,-36.4,0.2923,-0.5646,-0.5455
23.094,39.2,-35.21,-34.37,0.2986,-0.5885,-0.5475
23.11,42.91,-34.93,-31.92,0.3137,-0.6036,-0.5421
23.124,45.9199,-35.21,-29.33,0.3308,-0.607,-0.5358
23.14,49.7,-36.2599,-25.83,0.3542,-0.5904,-0.5426
23.154,53.06,-37.03,-21.35,0.3782,-0.5714,-0.5612
23.17,56.56,-37.59,-17.22,0.3864,-0.5699,-0.5665
23.187,59.5,-38.57,-12.53,0.4021,-0.5875,-0.5768
23.204,61.88,-40.74,-8.05,0.423,-0.5958,-0.568
23.22,61.88,-43.4,-2.8699,0.4377,-0.6153,-0.5626
23.234,60.55,-45.36,0.98,0.4499,-0.6329,-0.5543
23.247,58.52,-46.27,4.06,0.4645,-0.6422,-0.5568
23.263,56.56,-46.62,8.75,0.4738,-0.6397,-0.5641
23.28,54.25,-41.58,12.53,0.4592,-0.5968,-0.5719
23.295,49.98,-32.9,14.21,0.4377,-0.5616,-0.5929
23.312,45.29,-19.81,15.26,0.425,-0.5485,-0.6261
23.325,40.88,-8.4,14.63,0.3952,-0.5309,-0.6485
23.339,35.4199,-2.03,13.51,0.3996,-0.5441,-0.6573
23.352,30.52,-1.75,12.46,0.4167,-0.5743,-0.6485
23.368,23.1,-6.72,11.97,0.4362,-0.607,-0.6627
23.386,17.22,-12.53,10.78,0.4426,-0.6685,-0.6773
23.401,10.22,-11.06,9.52,0.4431,-0.7588,-0.6934
23.417,4.06,-4.48,7.98,0.427,-0.8105,-0.6988
23.434,-0.56,4.83,6.86,0.423,-0.8437,-0.7134
23.449,-3.43,11.62,6.37,0.4035,-0.8154,-0.7612
23.478,-3.29,18.06,5.39,0.3538,-0.6939,-0.7276
23.496,-1.89,14.21,4.9699,0.3518,-0.6817,-0.7134
23.514,0.56,6.23,4.76,0.3689,-0.6949,-0.6968
23.532,2.8699,0.56,1.33,0.3523,-0.711,-0.6685
23.548,4.34,14.35,-10.43,0.2483,-0.505,-0.6139
23.562,7.35,37.03,-25.9,0.2288,-0.3552,-0.5836
23.58,18.9,58.52,-49.84,0.1971,-0.527,-0.4806
23.594,36.61,69.65,-63.07,0.5621,-0.2869,-0.2459
23.612,80.15,144.41,-78.05,0.6573,0.1215,-0.2347
23.628,124.74,214.2,-85.33,0.8779,-0.0161,-0.0649
23.645,183.61,161.21,-74.62,1.3054,-0.2078,0.2
23.662,228.62,24.85,-61.18,1.4098,-0.3664,0.2908
23.676,258.23,-59.29,-66.22,1.258,-0.4943,0.3152
23.694,279.16,-86.8,-94.43,1.1555,-0.7417,0.364
23.712,288.47,-49.98,-142.03,1.1302,-0.8037,0.385
23.729,292.25,14.0,-146.86,1.1697,-0.894,0.385
23.746,296.31,41.93,-152.88,1.2141,-1.0067,0.4021
23.764,296.8,22.75,-149.24,1.1882,-1.1985,0.4816
23.781,288.26,-22.89,-140.35,1.0921,-1.2165,0.5402
23.797,273.07,-57.19,-127.33,1.0296,-1.0799,0.5446
23.811,257.53,-66.92,-114.38,0.954,-1.0648,0.5172
23.829,237.16,-41.44,-99.05,0.8315,-0.9989,0.3957
23.842,225.19,-21.7,-83.79,0.7939,-0.9301,0.2552
23.86,213.5,-14.0,-61.39,0.7793,-0.9516,0.1249
23.878,199.22,-18.83,-44.03,0.708,-0.8671,0.139
23.896,182.35,-39.06,-27.79,0.71,-0.7895,0.2132
23.911,160.9299,-56.35,-20.23,0.6841,-0.8252,0.1834
23.927,140.14,-80.64,-16.45,0.6509,-0.9594,0.1776
23.944,110.04,-88.55,-17.29,0.5075,-0.9203,0.142
23.959,88.3399,-76.58,-18.27,0.4128,-0.8408,0.1083
23.976,66.22,-60.2,-13.3,0.4382,-0.7725,0.1254
23.992,45.29,-62.09,-1.19,0.4313,-0.7237,0.1478
24.009,25.69,-65.31,14.21,0.3259,-0.7681,0.2166
24.027,9.24,-49.14,33.11,0.2386,-0.7183,0.1839
24.044,2.94,-11.55,49.7,0.1917,-0.6217,0.1581
24.062,-1.26,-5.53,65.31,0.383,-0.67,0.2518
24.079,-4.41,-26.81,73.5,0.5455,-0.7573,0.2039
24.097,-4.69,-52.22,72.66,0.6275,-0.8296,0.1263
24.114,-7.14,-85.4,69.86,0.8862,-0.9091,0.1249
24.127,-14.0,-104.37,66.85,1.117,-1.0301,0.1337
24.141,-28.14,-101.5,58.38,1.1941,-1.2141,0.2713
24.155,-44.73,-79.87,45.08,1.1921,-1.2273,0.3006
24.173,-56.7,-56.07,27.02,1.2653,-1.3161,0.2664
24.191,339.5,278.53,-7.0,-2.6849,2.5439,8.2032
24.209,252.07,-197.75,13.3,0.6139,-0.9071,0.7729
24.227,193.48,-470.68,-16.66,1.0018,-0.6588,0.2635
24.244,129.2899,-457.59,-44.52,0.4191,-0.9598,-0.1088
24.262,66.71,-276.43,-47.46,0.3089,-0.9638,-0.0507
24.279,22.19,-46.83,-29.47,0.2664,-0.7066,-0.0732
24.294,-0.98,92.61,-10.57,0.2932,-0.549,-0.2601
24.31,-6.3,96.39,8.96,0.301,-0.5206,-0.2971
24.328,-0.35,34.23,21.2099,0.2371,-0.3889,-0.3542
24.345,7.21,-19.8799,23.66,0.1873,-0.4162,-0.3967
24.361,12.53,-49.63,22.9599,0.1893,-0.3445,-0.4108
24.379,10.57,-53.48,19.25,0.1503,-0.3562,-0.3679
24.395,3.78,-47.6,13.79,0.0854,-0.4684,-0.4787
24.412,-11.83,-56.07,11.41,0.1668,-0.5978,-0.5431
24.428,-28.28,-71.82,14.56,0.2318,-0.8779,-0.6163
24.444,-50.82,-72.17,21.28,0.243,-1.1326,-0.607
24.462,-77.21,-60.55,32.7599,0.3098,-1.1834,-0.4592
24.478,-100.17,-43.47,46.83,0.385,-1.4508,-0.3679
24.496,-121.17,-20.23,61.74,0.3172,-1.4371,-0.2693
24.512,-136.08,-3.08,73.71,0.3137,-1.483,-0.3245
24.53,-142.73,0.0,94.36,0.4923,-1.6074,-0.3333
24.547,-144.27,2.66,113.47,0.4914,-1.2878,-0.344
24.564,-138.32,-1.61,132.37,0.5358,-1.0701,-0.2669
24.58,-132.86,-15.12,150.36,0.6119,-0.9516,-0.2025
24.598,-126.49,-22.26,164.08,0.6021,-0.9467,-0.1937
24.611,-121.17,-21.49,170.94,0.5802,-1.0931,-0.1532
24.625,-116.13,-5.6,172.2,0.4928,-0.935,-0.2166
24.641,-109.62,9.7299,171.2899,0.5177,-0.7812,-0.2288
24.657,-101.43,14.84,169.5399,0.6075,-0.7115,-0.2239
24.671,-93.45,20.79,163.94,0.5616,-0.7022,-0.2347
24.7,-81.76,40.53,146.72,0.5494,-0.6524,-0.2659
24.717,-75.25,55.93,136.15,0.5597,-0.5816,-0.2986
24.735,-69.86,63.63,125.23,0.5812,-0.5958,-0.342
24.752,-64.96,57.89,118.02,0.6363,-0.6178,-0.365
24.77,-59.5,46.69,112.07,0.6597,-0.6544,-0.4065
24.785,-56.28,37.8,106.89,0.6788,-0.5963,-0.4367
24.802,-53.34,40.6699,100.5899,0.6021,-0.545,-0.4801
24.82,-52.78,54.81,91.14,0.5626,-0.6231,-0.4982
24.838,-55.16,76.3,79.73,0.525,-0.6456,-0.5148
24.856,-61.39,93.66,68.46,0.4889,-0.6392,-0.547
24.873,-64.4,96.6,58.73,0.5377,-0.6412,-0.5734
24.89,-65.31,88.9,50.68,0.567,-0.6114,-0.5768
24.908,-64.4,80.5,45.85,0.5987,-0.6207,-0.5904
24.927,-61.46,74.13,41.02,0.5938,-0.6319,-0.5885
24.945,-58.8,81.9,35.35,0.5602,-0.6788,-0.5821
24.963,-55.51,87.43,30.17,0.5748,-0.7656,-0.6002
24.978,-51.66,84.07,27.65,0.6231,-0.8437,-0.6412
24.996,-44.59,75.6,24.99,0.6124,-0.9481,-0.6997
25.01,-38.36,68.11,23.24,0.6173,-0.9964,-0.7232
25.027,-29.47,60.97,21.7,0.6075,-0.9891,-0.7798
25.044,-18.69,48.93,22.19,0.6353,-0.9877,-0.8461
25.062,-4.48,31.99,24.22,0.6524,-0.9608,-0.8998
25.079,6.58,8.96,27.3,0.6612,-0.9389,-0.8779
25.097,13.44,-9.7299,30.52,0.6753,-0.9301,-0.7793
25.115,13.02,-16.73,32.48,0.6236,-0.8779,-0.6968
25.133,7.7,-8.1899,29.96,0.5153,-0.75,-0.6207
25.15,-4.06,21.7,23.66,0.3786,-0.5831,-0.5699
25.168,-13.44,50.12,13.16,0.2171,-0.4099,-0.5123
25.183,-21.35,68.6,4.9699,0.1732,-0.2825,-0.4699
25.199,-29.12,68.81,-1.82,0.1673,-0.1805,-0.4474
25.216,-35.56,53.13,-6.09,0.1883,-0.1405,-0.4401
25.234,-39.62,29.05,-9.03,0.1878,-0.1068,-0.4318
25.251,-42.07,10.99,-10.43,0.1976,-0.1293,-0.4362
25.268,-43.47,0.21,-11.6899,0.1888,-0.2142,-0.4318
25.285,-43.96,-3.22,-12.67,0.202,-0.3245,-0.4396
25.303,-43.61,-2.66,-13.3,0.2152,-0.3806,-0.4377
25.321,-41.93,-1.33,-11.83,0.2708,-0.5187,-0.4728
25.339,-39.41,-1.54,-8.89,0.3313,-0.5851,-0.4972
25.356,-34.65,-3.01,-4.06,0.3869,-0.6958,-0.528
25.374,-30.38,-5.18,0.49,0.4108,-0.8422,-0.567
25.391,-25.27,-4.13,5.46,0.4226,-0.9559,-0.6368
25.406,-20.72,0.56,8.75,0.445,-1.0413,-0.6705
25.42,-16.17,3.78,13.09,0.4889,-1.1092,-0.69
25.436,-10.85,3.78,18.48,0.4992,-1.1775,-0.7232
25.452,-4.83,-0.28,24.5,0.5275,-1.2156,-0.7822
25.469,1.26,-7.63,31.5,0.5587,-1.1951,-0.8261
25.487,10.01,-15.05,38.36,0.5758,-1.1385,-0.8857
25.505,15.05,-17.7099,44.31,0.5397,-0.9916,-0.872
25.522,16.45,-17.57,46.27,0.4601,-0.7041,-0.85
25.54,12.6,-14.35,43.54,0.3669,-0.5455,-0.873
25.555,8.12,-7.35,39.13,0.3899,-0.6675,-1.0306
25.573,5.32,4.34,32.48,0.4406,-0.8959,-1.1663
25.591,4.13,14.77,29.26,0.5738,-1.0184,-1.2156
25.605,1.12,23.17,30.94,0.7402,-1.0784,-1.1848
25.622,-4.76,33.04,34.16,0.792,-1.0008,-1.0858
25.64,-15.4,46.9,37.45,0.7612,-0.8686,-0.976
25.655,-24.08,58.1,37.66,0.6832,-0.7944,-0.9096
25.673,-35.21,71.68,34.58,0.5577,-0.6763,-0.8198
25.69,-44.31,77.49,29.05,0.4962,-0.5221,-0.7202
25.708,-51.45,77.49,24.57,0.4499,-0.3982,-0.6514
25.726,-58.31,75.6,18.9,0.3401,-0.2235,-0.5797
25.74,-66.15,70.91,15.12,0.2806,-0.0936,-0.4587
25.756,-73.01,66.78,12.53,0.2571,0.039,-0.3879
25.774,-78.26,63.84,10.01,0.1976,0.2283,-0.3923
25.79,-78.68,62.93,5.81,0.0873,0.4084,-0.4274
25.807,-77.21,59.78,-1.12,-0.0039,0.566,-0.4333
25.825,-75.18,45.71,-9.59,-0.0039,0.5621,-0.4206
25.843,-74.62,15.75,-14.77,0.0488,0.545,-0.3708
25.861,-76.93,-13.93,-16.73,0.1586,0.4865,-0.3347
25.879,-79.45,-30.52,-20.09,0.1869,0.4792,-0.3679
25.897,-82.32,-25.83,-24.99,0.2493,0.3904,-0.5416
25.914,-81.97,-8.26,-30.17,0.3542,0.2825,-0.6958
25.93,-79.8,11.83,-37.03,0.446,0.1156,-0.8325
25.948,-74.69,38.99,-44.1,0.6104,-0.1132,-1.0472
25.962,-68.74,48.58,-47.25,0.9525,-0.7988,-1.1629
25.98,-56.49,36.61,-46.13,1.178,-1.2673,-1.361
25.997,-40.81,11.13,-39.9,1.3717,-1.2229,-1.5103
26.013,-27.02,-11.76,-30.52,1.4805,-1.258,-1.4771
26.028,-16.17,-19.32,-24.78,1.3302,-1.159,-1.3585
26.044,-9.8,-13.37,-23.45,1.1531,-1.1092,-1.2849
26.057,-5.25,-0.56,-24.36,1.0584,-1.0018,-1.2341
26.071,1.33,12.81,-24.64,0.9935,-0.8871,-1.1716
26.099,12.74,29.54,-25.83,0.6822,-0.6441,-0.9028
26.116,17.43,26.67,-28.84,0.4509,-0.5231,-0.7495
26.129,20.3,9.87,-30.03,0.3508,-0.4323,-0.6378
26.146,22.75,-28.63,-27.09,0.3381,-0.3513,-0.5065
26.174,20.58,-90.51,-19.18,0.2342,-0.1522,-0.3762
26.191,13.02,-91.35,-20.09,0.0946,-0.0824,-0.2928
26.207,1.05,-67.06,-25.1299,-0.0082,-0.1034,-0.2332
26.225,-11.13,-38.22,-34.93,-0.0444,-0.1478,-0.2186
26.243,-27.86,-9.9399,-42.35,0.0341,-0.2488,-0.2435
26.26,-39.06,-15.82,-43.19,0.2015,-0.3425,-0.264
26.275,-49.77,-31.36,-40.6699,0.2415,-0.3864,-0.2137
26.293,-61.04,-42.84,-38.08,0.2039,-0.4909,-0.2566
26.31,-69.51,-37.87,-37.94,0.1464,-0.7139,-0.3494
26.326,-69.51,-22.75,-37.73,0.2679,-1.1414,-0.5807
26.341,-62.3,-18.1299,-30.24,0.568,-1.5415,-0.6768
26.359,-54.18,-23.73,-9.45,0.7783,-1.7836,-0.587
26.373,-51.94,-18.48,8.26,0.791,-1.8221,-0.5075
26.391,-50.4,8.96,26.11,0.5763,-1.5084,-0.4748
26.408,-44.94,50.61,34.86,0.2576,-1.1541,-0.608
26.424,-31.71,73.5,39.97,0.264,-0.8842,-0.7622
26.44,-11.97,85.33,41.86,0.1654,-0.7232,-0.8886
26.456,8.54,75.74,44.59,0.1649,-0.6314,-0.851
26.473,23.59,48.79,48.09,0.1722,-0.5826,-0.7407
26.489,32.27,12.67,53.69,0.2483,-0.5138,-0.6529
26.504,35.91,-17.78,61.67,0.3206,-0.4196,-0.6129
26.521,38.71,-40.6699,69.65,0.3376,-0.3474,-0.6524
26.536,40.6699,-37.1699,73.29,0.264,-0.2498,-0.6929
26.552,41.16,-11.34,72.94,0.1795,-0.1893,-0.7119
26.568,39.69,22.19,70.63,0.1722,-0.14,-0.6954
26.586,37.1,40.81,69.79,0.2381,-0.0966,-0.6875
26.599,32.27,37.1,69.93,0.301,-0.0239,-0.6622
26.613,28.49,22.9599,69.0899,0.303,0.0556,-0.6768
26.629,25.34,9.87,64.82,0.2581,0.0775,-0.6983
26.646,20.44,0.07,57.82,0.2288,0.0849,-0.7007
26.675,7.77,-12.39,44.1,0.2615,0.0468,-0.6602
26.692,1.05,-11.76,35.35,0.2732,0.0102,-0.6622
26.709,-3.99,-9.17,29.12,0.301,-0.0409,-0.6778
26.727,-7.35,-10.92,24.99,0.3284,-0.0624,-0.6963
26.744,-7.35,-20.23,23.59,0.4069,-0.1322,-0.73
26.762,-4.48,-38.08,25.27,0.4435,-0.1625,-0.7363
26.78,-1.19,-45.57,27.79,0.4675,-0.2796,-0.729
26.796,0.77,-38.08,29.61,0.446,-0.3362,-0.6866
26.813,0.63,-24.5,30.03,0.3908,-0.3811,-0.5997
26.829,-1.47,-16.3799,29.47,0.3669,-0.4675,-0.5368
26.847,-2.73,-15.47,28.07,0.3645,-0.7027,-0.4967
26.863,-0.7,-15.47,25.97,0.3498,-0.8574,-0.5758
26.881,7.21,-17.01,20.93,0.3962,-1.0125,-0.7271
26.899,23.1,-19.25,16.52,0.4299,-1.1414,-0.954
26.916,33.6699,-24.15,17.78,0.6919,-1.4815,-0.8144
26.932,31.01,-24.08,24.64,0.8222,-1.8085,-0.6114
26.948,16.59,-1.75,29.26,0.7695,-1.9368,-0.4782
26.964,-0.35,37.87,33.74,0.7485,-1.8348,-0.4816
26.982,-10.92,73.92,37.94,0.7261,-1.6992,-0.6182
26.999,-13.37,96.04,40.6699,0.6407,-1.4435,-0.6734
27.014,-10.99,93.8,43.61,0.6153,-1.3468,-0.6724
27.032,-5.53,70.98,49.77,0.6426,-1.2414,-0.6822
27.05,1.68,48.02,61.39,0.7124,-1.0936,-0.7168
27.064,13.23,26.81,71.33,0.7417,-0.9672,-0.7925
27.079,21.6299,20.02,79.73,0.6954,-0.9057,-0.7881
27.097,26.32,28.91,87.15,0.6295,-0.893,-0.7988
27.114,29.26,45.22,90.3,0.5455,-0.8881,-0.8335
27.129,31.36,56.98,90.86,0.4958,-0.8418,-0.8076
27.145,32.13,60.83,90.86,0.4694,-0.7461,-0.7754
27.16,32.06,55.02,89.53,0.4348,-0.6797,-0.7393
27.176,31.78,41.23,87.22,0.3738,-0.6446,-0.7115
27.194,31.92,27.16,81.13,0.2981,-0.609,-0.7002
27.209,33.25,24.7099,74.55,0.261,-0.5694,-0.7237
27.226,35.49,28.7,65.1,0.241,-0.5397,-0.7193
27.244,37.52,29.61,57.26,0.2664,-0.566,-0.7154
27.258,38.64,25.34,49.91,0.261,-0.5948,-0.7334
27.275,40.04,16.52,39.55,0.22,-0.6095,-0.7656
27.292,39.9,1.68,25.55,0.2176,-0.6617,-0.7456
27.307,37.59,-15.05,14.91,0.2239,-0.7119,-0.73
27.325,33.32,-28.7,1.61,0.2527,-0.7407,-0.6978
27.343,29.19,-32.83,-10.57,0.2444,-0.7383,-0.6836
27.356,24.43,-27.16,-17.64,0.2318,-0.7241,-0.6646
27.37,21.84,-19.32,-26.11,0.2078,-0.7154,-0.6202
27.383,19.95,-14.77,-33.39,0.2205,-0.7178,-0.5729
27.414,16.52,-11.83,-45.78,0.2308,-0.7515,-0.5099
27.43,16.24,-13.93,-50.2599,0.2449,-0.7559,-0.4875
27.445,17.29,-13.51,-54.6,0.2366,-0.728,-0.4782
27.463,19.8799,-9.9399,-59.57,0.2274,-0.7207,-0.4357
27.481,22.47,-4.13,-63.91,0.2113,-0.7198,-0.4255
27.499,26.88,-1.89,-67.55,0.2122,-0.7168,-0.3791
27.517,31.57,-7.84,-68.04,0.2708,-0.7163,-0.4113
27.535,37.31,-25.9,-66.29,0.3396,-0.731,-0.4162
27.553,41.37,-42.77,-63.77,0.3689,-0.8486,-0.4094
27.57,43.47,-51.8,-62.65,0.364,-0.9608,-0.3938
27.587,43.2599,-50.68,-61.04,0.3855,-1.057,-0.3938
27.605,42.14,-50.33,-56.35,0.4616,-1.0955,-0.446
27.622,40.88,-54.46,-49.35,0.566,-1.0574,-0.4953
27.638,38.64,-57.4,-41.5099,0.5997,-1.0028,-0.5465
27.654,33.74,-57.47,-35.21,0.5773,-0.996,-0.5509
27.669,27.65,-56.84,-30.73,0.5899,-1.0135,-0.6319
27.684,25.55,-60.76,-26.04,0.6412,-1.013,-0.8335
27.7,27.02,-64.82,-21.6299,0.6065,-0.9618,-0.9262
27.715,27.72,-65.17,-21.07,0.5128,-0.9437,-0.8974
27.733,26.39,-59.5,-24.01,0.4318,-0.9545,-0.8398
27.751,21.42,-52.5,-29.19,0.3879,-0.9716,-0.7251
27.769,7.49,-44.31,-33.95,0.3845,-0.8886,-0.588
27.786,-2.17,-37.38,-38.15,0.3406,-0.7212,-0.5597
27.804,-7.77,-31.71,-41.23,0.342,-0.647,-0.6192
27.82,-6.16,-31.57,-41.02,0.4045,-0.627,-0.6719
27.836,-2.17,-36.68,-38.0099,0.4767,-0.6495,-0.6583
27.849,0.21,-42.98,-34.02,0.4899,-0.6524,-0.5558
27.866,-1.4,-50.12,-30.31,0.4655,-0.6256,-0.4362
27.882,-7.98,-51.73,-29.12,0.3923,-0.6358,-0.363
27.899,-15.05,-45.43,-28.98,0.3728,-0.6119,-0.3816
27.915,-20.51,-34.93,-29.47,0.3313,-0.5607,-0.3913
27.929,-24.43,-25.27,-31.01,0.301,-0.5392,-0.3962
27.942,-28.21,-21.28,-32.69,0.2879,-0.5319,-0.3899
27.958,-31.99,-19.11,-35.4199,0.2766,-0.5436,-0.3747
27.975,-35.77,-17.7099,-38.36,0.2625,-0.5533,-0.3645
27.99,-39.9,-17.29,-40.95,0.2532,-0.5358,-0.3435
28.007,-43.89,-18.55,-43.61,0.2493,-0.4816,-0.3303
28.021,-45.9199,-21.49,-45.15,0.243,-0.4348,-0.3113
28.039,-46.9,-23.87,-46.34,0.2239,-0.4128,-0.2947
28.057,-46.34,-26.18,-48.3,0.1898,-0.4055,-0.3225
28.074,-42.49,-29.12,-49.4199,0.202,-0.4762,-0.3767
28.089,-36.54,-34.09,-47.74,0.2815,-0.5582,-0.4611
28.104,-26.67,-40.32,-43.89,0.3577,-0.6285,-0.5094
28.12,-17.78,-43.47,-37.87,0.3943,-0.6783,-0.5075
28.138,-10.99,-43.82,-31.85,0.384,-0.7222,-0.4562
28.151,-7.0,-41.5099,-28.7,0.3757,-0.8056,-0.3806
28.165,-5.88,-37.8,-23.94,0.424,-0.9433,-0.3918
28.181,-3.78,-32.48,-16.73,0.5109,-1.1365,-0.4758
28.197,1.19,-25.69,-9.24,0.5846,-1.3278,-0.5455
28.225,10.57,-0.42,3.57,0.5821,-1.5074,-0.5748
28.243,14.63,8.96,12.95,0.6182,-1.5137,-0.5709
28.257,20.02,13.86,21.28,0.6563,-1.481,-0.6056
28.274,27.58,9.8,32.7599,0.669,-1.3093,-0.6065
28.291,33.95,0.0,44.31,0.627,-1.0301,-0.5524
28.305,38.08,-8.61,54.32,0.568,-0.7617,-0.5021
28.322,40.95,-13.86,61.46,0.4884,-0.5514,-0.4592
28.339,42.84,-10.78,65.66,0.4065,-0.4167,-0.4504
28.353,43.75,-1.47,67.06,0.362,-0.3264,-0.4499
28.371,44.1699,13.58,66.5,0.2976,-0.2396,-0.4499
28.387,43.96,26.53,64.82,0.2879,-0.1561,-0.4601
28.403,42.77,31.64,62.93,0.2937,-0.1029,-0.4694
28.419,41.09,29.12,60.48,0.2942,-0.0858,-0.4767
28.434,38.71,22.54,58.38,0.3196,-0.1078,-0.4987
28.45,35.98,14.35,55.65,0.3342,-0.1424,-0.5309
28.468,33.53,7.84,51.66,0.3513,-0.2147,-0.5509
28.481,28.0,5.39,48.72,0.3821,-0.3401,-0.5895
28.495,23.17,3.92,44.94,0.4206,-0.4382,-0.6265
28.51,18.83,3.22,41.72,0.4767,-0.4953,-0.667
28.526,14.0,3.92,38.29,0.508,-0.5934,-0.7637
28.555,11.62,3.57,30.94,0.5289,-0.7895,-0.933
28.573,12.32,-3.78,27.23,0.5641,-0.8598,-0.9574
28.591,14.56,-15.75,27.09,0.69,-0.9633,-1.0257
28.609,19.74,-26.25,30.1,0.7442,-1.0199,-1.0555
28.626,22.61,-26.18,32.06,0.7027,-0.9862,-1.0179
28.644,24.43,-15.96,31.71,0.6407,-0.9433,-1.0291
28.659,26.11,3.64,28.21,0.4831,-0.7544,-1.0345
28.675,28.35,22.33,19.32,0.3616,-0.5694,-1.0169
28.69,29.89,33.6699,10.43,0.3294,-0.485,-0.9628
28.706,28.84,29.61,-0.14,0.301,-0.4572,-0.8598
28.723,21.56,16.31,-10.71,0.2732,-0.4445,-0.73
28.741,10.5,-0.49,-22.68,0.2498,-0.4108,-0.6065
28.759,-3.85,-7.35,-33.46,0.202,-0.3386,-0.5436
28.776,-14.63,-6.86,-45.36,0.1556,-0.2205,-0.5382
28.794,-23.45,-2.17,-56.07,0.1151,-0.2044,-0.5314
28.811,-29.33,2.59,-67.2,0.1093,-0.1976,-0.5016
28.826,-33.32,3.57,-73.85,0.1322,-0.221,-0.4928
28.843,-37.45,-1.89,-79.5899,0.1693,-0.2596,-0.4762
28.857,-39.7599,-10.5,-82.67,0.1961,-0.3323,-0.4631
28.874,-41.58,-22.05,-84.35,0.2293,-0.4601,-0.4592
28.891,-42.14,-31.01,-84.0,0.2679,-0.5729,-0.4699
28.906,-41.58,-35.07,-82.32,0.2971,-0.5831,-0.4684
28.921,-39.41,-34.02,-79.31,0.3367,-0.6197,-0.4787
28.936,-37.24,-27.16,-75.25,0.3337,-0.6143,-0.4543
28.954,-34.37,-15.19,-71.82,0.3118,-0.606,-0.4328
28.971,-30.45,-1.19,-68.95,0.2801,-0.6773,-0.4723
28.988,-24.22,8.89,-65.66,0.3113,-0.7363,-0.4977
29.005,-17.57,9.31,-60.69,0.3655,-0.7276,-0.4714
29.023,-13.72,6.3,-54.81,0.3796,-0.7183,-0.426
29.036,-11.4799,9.7299,-52.43,0.3264,-0.7944,-0.4279
29.053,-9.38,21.2099,-49.49,0.3635,-1.0072,-0.5158
29.07,-4.83,34.3,-43.89,0.486,-1.2814,-0.6104
29.084,0.14,40.95,-36.47,0.5548,-1.3888,-0.6265
29.099,3.99,44.1,-28.56,0.5709,-1.3898,-0.5968
29.112,7.07,43.61,-20.02,0.5777,-1.3951,-0.6002
29.129,11.34,36.96,-8.4,0.6031,-1.3595,-0.63
29.143,17.29,21.56,4.34,0.6783,-1.3429,-0.6988
29.157,25.55,3.15,19.67,0.7466,-1.2961,-0.7378
29.183,43.61,-24.7099,48.09,0.709,-0.9511,-0.7568
29.197,53.13,-28.35,61.04,0.6558,-0.772,-0.7363
29.214,61.39,-18.41,71.05,0.5089,-0.6231,-0.6954
29.229,66.43,-2.45,76.16,0.4323,-0.5943,-0.6744
29.244,68.39,14.49,79.5199,0.3947,-0.5275,-0.6524
29.259,69.0199,31.36,80.71,0.3455,-0.4572,-0.6334
29.277,68.67,39.62,80.71,0.3342,-0.3816,-0.6129
29.295,66.99,44.38,80.43,0.3474,-0.322,-0.5738
29.313,64.96,38.64,79.17,0.3572,-0.2727,-0.5465
29.331,62.72,29.47,76.23,0.3601,-0.2635,-0.5455
29.349,58.73,24.01,54.04,0.3703,-0.2888,-0.5377
29.367,49.21,18.1299,64.54,0.3601,-0.3376,-0.486
29.383,40.53,17.64,56.49,0.3494,-0.4157,-0.447
29.396,30.59,17.08,50.89,0.3821,-0.4523,-0.4362
29.412,21.28,14.56,44.52,0.426,-0.466,-0.4621
29.429,10.5,9.38,39.06,0.4631,-0.5055,-0.4875
29.444,4.48,5.39,34.23,0.4919,-0.5797,-0.5036
29.457,-3.29,2.94,31.22,0.5177,-0.6719,-0.5202
29.473,-9.31,-0.21,28.49,0.566,-0.7339,-0.5294
29.488,-15.05,-3.99,27.02,0.6036,-0.7759,-0.527
29.502,-22.61,-6.44,25.2,0.6017,-0.772,-0.5055
29.533,-39.97,-1.12,19.11,0.5694,-0.8349,-0.4997
29.551,-46.7599,5.7399,14.0,0.5572,-0.9032,-0.5431
29.569,-52.99,17.92,6.72,0.5143,-0.892,-0.6222
29.587,-55.65,24.15,-0.84,0.4474,-0.8525,-0.6553
29.603,-57.05,26.95,-9.59,0.4182,-0.915,-0.669
29.619,-57.82,23.66,-17.15,0.444,-0.9979,-0.6866
29.637,-57.19,14.21,-22.33,0.4797,-1.2297,-0.7051
29.653,-54.18,-0.07,-21.56,0.629,-1.2317,-0.7549
29.669,-50.33,-15.26,-17.92,0.6905,-1.1956,-0.7266
29.685,-46.41,-22.19,-12.53,0.6807,-1.1443,-0.7134
29.701,-42.63,-13.23,-8.82,0.6285,-1.1224,-0.7193
29.717,-37.73,3.5,-7.0,0.5919,-1.098,-0.7193
29.733,-33.11,29.19,-7.84,0.508,-1.0062,-0.6773
29.751,-29.4,59.29,-10.85,0.4221,-0.8134,-0.6368
29.769,-25.06,78.12,-16.73,0.3459,-0.4699,-0.5694
29.785,-21.91,80.5,-22.05,0.3352,-0.342,-0.5709
29.801,-18.9,72.1,-26.39,0.3176,-0.2928,-0.5572
29.819,-17.08,53.13,-33.6,0.2928,-0.2937,-0.5372
29.836,-17.22,31.71,-40.25,0.3079,-0.2991,-0.5099
29.854,-18.06,6.51,-47.04,0.3386,-0.3215,-0.5114
29.871,-18.9,-10.15,-51.38,0.3825,-0.3713,-0.5319
29.887,-19.39,-19.53,-54.6,0.4235,-0.4123,-0.5387
29.904,-19.95,-20.86,-56.77,0.446,-0.4274,-0.549
29.919,-20.16,-16.52,-58.59,0.4718,-0.444,-0.547
29.934,-20.58,-7.91,-60.48,0.4728,-0.4479,-0.5582
29.95,-20.16,-0.63,-61.95,0.5167,-0.4743,-0.5851
29.965,-18.83,3.5,-62.79,0.5153,-0.4626,-0.5836
29.98,-17.15,6.44,-64.33,0.5001,-0.4318,-0.586
29.996,-14.7,6.58,-65.66,0.4943,-0.4372,-0.5826
30.01,-12.46,2.94,-66.57,0.5021,-0.4426,-0.5763
30.028,-10.15,-2.59,-67.69,0.507,-0.4611,-0.5748
30.046,-7.14,-12.32,-68.95,0.5158,-0.5045,-0.586
30.063,-5.7399,-18.34,-70.0,0.5348,-0.528,-0.5758
30.078,-5.32,-24.36,-70.35,0.5577,-0.5197,-0.546
30.096,-5.67,-35.49,-70.0,0.5831,-0.5221,-0.5216
30.114,-7.42,-43.4,-70.42,0.5826,-0.5089,-0.4987
30.13,-9.59,-42.07,-72.38,0.566,-0.484,-0.4982
30.148,-12.39,-28.21,-74.83,0.5841,-0.4572,-0.5109
30.166,-14.49,-12.88,-73.85,0.7432,-0.4035,-0.5538
30.184,-16.66,0.77,-69.0899,0.8715,-0.3513,-0.6178
30.199,-17.57,10.78,-64.05,0.9379,-0.4069,-0.6939
30.213,-18.1299,22.33,-62.02,0.9306,-0.447,-0.7661
30.231,-19.32,33.88,-60.9,0.9423,-0.4226,-0.8383
30.249,-20.44,36.89,-61.25,0.9677,-0.3416,-0.932
30.267,-20.79,29.12,-60.2,1.0155,-0.2918,-1.0096
30.285,-21.56,11.34,-56.56,1.1019,-0.2537,-1.0477
30.303,-26.25,1.19,-52.36,1.1253,-0.2044,-1.0189
30.32,-35.0,6.86,-51.1699,1.0438,-0.1351,-0.953
30.334,-45.57,23.24,-54.04,0.9345,-0.1195,-0.8744
30.347,-55.37,45.08,-60.34,0.8388,-0.1058,-0.7998
30.361,-66.22,65.5199,-68.53,0.7554,-0.0683,-0.73
30.379,-74.13,79.03,-78.75,0.6807,-0.0112,-0.6885
30.397,-78.75,94.92,-90.58,0.5924,0.0761,-0.6597
30.414,-74.97,86.87,-99.12,0.528,0.1556,-0.6378
30.43,-68.74,57.12,-102.2,0.5787,0.1888,-0.6163
30.448,-58.52,24.08,-100.31,0.5636,0.2513,-0.587
30.463,-50.75,4.06,-97.0899,0.5133,0.2649,-0.5685
30.481,-41.44,1.05,-91.7,0.4923,0.2674,-0.5411
30.498,-34.3,11.9,-86.73,0.4655,0.2361,-0.5221
30.516,-26.32,20.44,-79.66,0.4645,0.1961,-0.5319
30.531,-19.67,16.03,-72.1,0.5392,0.1927,-0.5543
30.549,-10.08,-0.35,-60.27,0.6124,0.2108,-0.568
30.566,-2.24,-17.22,-46.41,0.6036,0.2254,-0.5641
30.582,4.2,-25.76,-35.98,0.5978,0.1971,-0.5426
30.6,9.38,-33.6,-26.74,0.5997,0.1693,-0.5128
30.618,12.39,-36.05,-18.76,0.5821,0.1464,-0.4972
30.635,15.26,-33.32,-13.37,0.5895,0.1459,-0.4958
30.651,17.64,-30.66,-8.89,0.6109,0.1815,-0.4972
30.666,20.93,-32.48,-5.6,0.6539,0.1903,-0.4899
30.682,25.48,-37.94,-1.89,0.691,0.1869,-0.5041
30.695,30.03,-53.55,1.61,0.71,0.3074,-0.508
30.713,-23.45,-77.7,10.57,1.0614,0.6363,-1.5235
30.731,-3.71,-7.42,8.75,0.7793,0.5216,-0.3606
30.749,-11.06,31.57,9.87,0.6675,0.2283,-0.6212
30.766,-6.65,16.17,19.6,0.7276,0.2464,-0.6187
30.781,-4.41,-2.94,23.52,0.8452,0.2796,-0.4889
30.797,-3.15,-9.31,23.87,0.7759,0.203,-0.5163
30.814,-4.9699,0.84,17.64,0.7471,0.1556,-0.586
30.827,-8.12,18.48,8.68,0.7241,0.1249,-0.6173
30.841,-8.47,30.03,0.0,0.7129,0.1034,-0.5641
30.858,-5.32,23.24,-7.0,0.752,0.0839,-0.5626
30.876,-1.68,6.23,-12.53,0.7676,0.0336,-0.5816
30.894,0.84,-8.96,-16.66,0.772,0.0019,-0.628
30.908,2.1,-8.47,-18.62,0.8003,0.0004,-0.6265
30.925,3.29,-0.84,-19.8799,0.854,0.0019,-0.5938
30.941,4.48,8.26,-19.8799,0.9193,0.0258,-0.5621
30.958,4.55,16.59,-18.55,0.893,0.0322,-0.5485
30.972,4.34,15.89,-16.24,0.8769,0.0463,-0.567
31.003,6.51,-10.99,-11.83,0.8393,0.0092,-0.5651
31.017,7.98,-8.61,-11.97,0.8261,-0.0078,-0.526
31.035,7.35,14.7,-13.16,0.8056,0.0024,-0.5187
31.053,8.54,22.33,-10.43,0.8632,0.0668,-0.5304
31.069,10.92,12.74,-6.02,0.8906,0.1088,-0.5041
31.086,13.09,4.48,-2.94,0.8466,0.1693,-0.5177
31.103,13.79,8.61,-1.89,0.7915,0.202,-0.5441
31.119,13.51,13.37,-1.47,0.7651,0.2469,-0.5807
31.137,13.16,11.27,-0.63,0.7715,0.2532,-0.567
31.151,12.95,2.66,-0.21,0.772,0.2274,-0.5455
31.167,12.53,-3.22,-1.05,0.771,0.201,-0.546
31.181,11.76,-4.06,-3.36,0.7446,0.1912,-0.5626
31.198,11.27,0.21,-7.21,0.708,0.1908,-0.6002
31.214,12.25,-1.19,-9.66,0.7359,0.1805,-0.606
31.232,14.7,-12.95,-9.7299,0.7739,0.1708,-0.589
31.25,17.85,-27.44,-8.33,0.8393,0.1781,-0.6065
31.267,21.07,-31.71,-7.42,0.8315,0.1922,-0.6783
31.282,24.43,-21.98,-6.72,0.752,0.1825,-0.7539
31.299,29.47,-13.86,-4.62,0.668,0.078,-0.791
31.315,36.96,-26.18,-2.94,0.5997,-0.0888,-0.7505
31.331,45.22,-57.89,-0.7,0.5104,-0.2854,-0.8315
31.349,54.11,-84.63,3.57,0.4113,-0.4255,-1.0926
31.363,57.19,-98.42,6.58,0.3333,-0.5226,-1.2975
31.381,65.87,-150.99,15.05,0.3367,-0.61,-1.3268
31.397,78.12,-200.69,26.6,0.2391,-0.6646,-1.3551
31.413,88.48,-209.86,37.24,0.1693,-0.6724,-1.401
31.427,100.17,-212.24,48.65,0.1761,-0.6236,-1.4576
31.441,114.87,-227.36,62.93,0.2069,-0.589,-1.5435
31.454,131.39,-259.21,77.14,0.2015,-0.6339,-1.6391
31.469,146.7899,-290.01,89.11,0.182,-0.7022,-1.7572
31.483,158.34,-302.26,96.81,0.1073,-0.7402,-1.8792
31.498,165.48,-296.1,101.85,0.0575,-0.7905,-1.9876
31.512,168.7,-288.82,107.1,0.0531,-0.8359,-2.0979
31.54,165.06,-311.43,123.41,0.1385,-0.9564,-2.2291
31.555,157.92,-315.07,132.37,0.0985,-0.9701,-2.3121
31.57,150.08,-299.95,141.96,0.0253,-0.9491,-2.4331
31.585,140.63,-283.99,151.97,0.039,-0.9569,-2.4853
31.6,127.05,-288.54,164.15,0.0566,-0.972,-2.5034
31.615,111.3,-294.84,178.71,0.0492,-1.0423,-2.4673
31.633,91.91,-279.23,194.11,0.0073,-1.0413,-2.4238
31.651,59.22,-248.78,208.53,-0.0097,-0.8857,-2.3267
31.666,43.33,-241.22,222.32,0.08,-0.8052,-2.2174
31.681,30.17,-250.46,237.86,0.1307,-0.7437,-2.0964
31.697,15.54,-250.39,249.83,0.1737,-0.7129,-1.9524
31.714,-0.7,-237.79,258.8599,0.2791,-0.6656,-1.7607
31.729,-19.6,-224.07,264.67,0.3611,-0.6661,-1.5752
31.746,-40.6,-206.85,269.64,0.4026,-0.6222,-1.3366
31.763,-60.76,-193.76,273.28,0.4069,-0.5929,-1.1668
31.779,-75.53,-187.39,275.87,0.3786,-0.5133,-1.0047
31.795,-83.44,-186.48,280.14,0.405,-0.3489,-0.8862
31.811,-91.63,-186.2,283.43,0.3777,-0.3767,-0.7246
31.829,-106.4,-180.25,283.85,0.3396,-0.4679,-0.5265
31.844,-123.62,-166.39,285.18,0.3137,-0.4601,-0.3689
31.862,-147.56,-141.47,289.45,0.2566,-0.303,-0.2054
31.877,-165.55,-117.88,295.6099,0.2371,-0.2293,-0.1068
31.895,-182.14,-100.8,306.04,0.2322,-0.162,0.0024
31.912,-198.1,-91.21,316.4,0.222,-0.0624,0.1307
31.93,-215.53,-80.78,329.21,0.1942,0.0463,0.2557
31.947,-227.99,-49.21,339.57,0.2215,0.1424,0.2967
31.963,-240.1,-17.15,348.81,0.2371,0.0868,0.3001
31.98,-255.92,15.19,357.21,0.302,-0.0165,0.3494
31.998,-279.23,39.13,363.51,0.2615,-0.1449,0.4426
32.016,-298.76,63.91,366.03,0.2015,-0.202,0.5538
32.034,-323.82,72.38,367.15,0.1566,-0.2679,0.7354
32.05,-334.81,77.8399,364.35,0.0839,-0.2239,0.8525
32.068,-337.12,89.04,356.02,0.0248,-0.2059,1.0038
32.086,-333.27,101.5,346.0799,-0.0248,-0.2747,1.26
32.1,-326.2,95.62,338.17,0.0078,-0.3523,1.4552
32.116,-314.37,69.65,333.8299,0.1288,-0.424,1.6211
32.132,-293.79,42.07,334.04,0.2498,-0.5431,1.7206
32.148,-271.74,36.75,332.22,0.2625,-0.667,1.9202
32.165,-252.28,66.36,324.66,0.2635,-0.7715,2.111
32.179,-233.59,68.67,322.77,0.4743,-0.8691,2.173
32.196,-204.82,43.33,328.65,0.7783,-0.9433,2.214
32.212,-172.41,40.04,333.48,0.8042,-1.0814,2.216
32.228,-140.35,73.01,335.51,0.8969,-1.2356,2.2423
32.245,-108.08,95.97,338.73,1.0901,-1.7592,2.3262
32.26,-75.46,77.42,346.0799,1.3254,-2.1101,2.3175
32.275,-26.11,59.01,354.97,1.5137,-2.5883,2.1472
32.29,28.21,63.14,364.77,1.7543,-3.3808,1.9578
32.308,93.17,98.14,370.8599,1.9358,-4.0923,1.8495
32.326,235.83,130.06,368.48,1.9651,-5.0517,1.6865
32.343,382.34,111.58,363.09,2.0696,-5.3499,1.3688
32.357,544.95,73.29,354.34,2.0681,-5.3738,0.914
32.374,770.07,35.77,334.74,2.2277,-5.4607,0.0126
32.39,1009.12,12.39,305.06,2.4482,-5.954,-0.9755
32.406,1228.22,0.49,261.59,2.5239,-6.9579,-2.3687
32.423,408.8,1958.32,41.23,-4.9307,-9.3046,-10.3607
32.439,621.74,-286.79,616.98,7.9251,-3.6053,-11.4401
32.454,962.36,-1097.88,491.33,2.3355,-0.2083,-0.6075
32.47,919.66,-19.11,166.81,-2.499,-4.3607,-4.3324
32.486,731.15,683.83,162.89,-0.262,-5.9213,-4.0113
32.503,576.73,245.77,329.84,3.6009,-4.9673,-4.9034
32.521,490.21,-130.34,342.65,1.5415,-3.3384,-4.6462
32.536,406.28,29.61,292.95,0.7671,-2.195,-4.8399
32.551,334.95,209.65,266.35,1.0643,-1.4478,-4.552
32.567,265.3,200.9,271.67,1.4142,-1.0233,-4.0206
32.583,205.31,156.66,273.35,1.2141,-1.0701,-3.3369
32.597,161.91,155.82,266.91,1.0653,-1.1326,-3.0168
32.614,117.18,118.65,266.21,1.3156,-1.3258,-2.4858
32.632,73.01,47.32,271.39,1.462,-1.5279,-2.1769
32.65,45.64,25.62,275.1,1.4171,-1.5674,-1.8509
32.665,27.51,44.45,274.12,1.3302,-1.565,-1.6592
32.68,13.58,59.85,275.66,1.4337,-1.6391,-1.3961
32.696,-6.44,64.68,279.5799,1.5411,-1.8285,-1.1794
32.711,-27.72,66.85,286.5799,1.6435,-2.0164,-1.0018
32.728,-54.39,76.3,294.49,1.6958,-2.0539,-0.8091
32.744,-79.17,95.2,301.77,1.6733,-1.9134,-0.6817
32.759,-100.45,127.05,306.1099,1.6016,-1.7182,-0.607
32.776,-120.82,159.53,305.9,1.482,-1.5796,-0.5328
32.791,-139.3,190.75,299.95,1.3868,-1.5738,-0.427
32.807,-162.47,213.01,288.96,1.3273,-1.6143,-0.3298
32.821,-180.46,215.74,278.46,1.321,-1.6367,-0.2479
32.837,-196.56,193.69,268.31,1.2844,-1.6435,-0.1883
32.853,-206.22,161.21,255.36,1.2209,-1.6543,-0.1278
32.869,-211.4,125.79,241.36,1.1829,-1.7216,-0.0541
32.885,-214.13,97.37,226.59,1.1633,-1.7421,0.02
32.901,-212.87,65.45,212.8,1.1912,-1.7172,0.0688
32.914,-207.76,36.12,205.24,1.2566,-1.6504,0.1137
32.93,-198.87,7.14,197.61,1.3351,-1.4884,0.1825
32.948,-187.0399,-12.88,189.14,1.3839,-1.361,0.2469
32.966,-168.98,28.7,169.89,1.1868,-1.2258,0.3508
32.984,-157.64,123.62,133.91,0.9672,-1.0165,0.3469
33.0,-141.5399,192.92,99.89,0.9281,-0.8437,0.3206
33.017,-117.18,240.03,71.54,0.9247,-0.6412,0.3089
33.035,-89.74,235.06,50.47,0.9145,-0.5812,0.2903
33.053,-45.99,163.45,39.97,0.8886,-0.4972,0.2576
33.067,-5.7399,102.97,32.7599,0.8183,-0.4967,0.203
33.081,32.27,46.55,24.29,0.7646,-0.5436,0.1771
33.097,60.69,2.59,11.34,0.7163,-0.6104,0.1512
33.111,84.7699,-33.25,-2.52,0.7056,-0.6788,0.12
33.126,104.16,-55.3,-17.57,0.7217,-0.7398,0.101
33.14,121.1,-72.45,-33.11,0.7485,-0.8012,0.0644
33.154,130.2,-84.49,-49.28,0.7495,-0.8808,0.0302
33.182,144.34,-96.46,-81.06,0.7671,-0.9603,-0.0551
33.2,149.17,-97.65,-100.66,0.7593,-0.9921,-0.0966
33.217,151.06,-96.39,-116.27,0.7422,-1.0213,-0.1268
33.234,152.25,-93.45,-129.64,0.7207,-1.0623,-0.1673
33.252,153.72,-92.54,-141.5399,0.7276,-1.0628,-0.2113
33.27,155.75,-94.99,-149.1,0.7271,-1.0482,-0.2581
33.286,158.48,-100.87,-155.12,0.7329,-1.0638,-0.2918
33.302,160.44,-109.27,-161.14,0.709,-1.0984,-0.3084
33.318,160.86,-114.87,-168.56,0.6778,-1.1638,-0.3269
33.336,159.95,-116.62,-178.15,0.6622,-1.2239,-0.3362
33.354,158.2,-118.58,-186.48,0.6607,-1.2517,-0.3874
33.37,157.57,-122.78,-193.9,0.649,-1.2224,-0.4196
33.385,156.8,-128.24,-199.2899,0.6475,-1.2034,-0.4562
33.4,156.38,-134.47,-204.47,0.667,-1.1926,-0.4845
33.415,154.91,-139.9299,-208.0399,0.6627,-1.1785,-0.4997
33.43,152.6,-140.0,-211.47,0.6344,-1.1804,-0.4953
33.445,149.31,-135.31,-215.18,0.6158,-1.1877,-0.4933
33.46,144.76,-126.7,-217.84,0.5919,-1.177,-0.484
33.476,139.44,-109.13,-220.22,0.5621,-1.1965,-0.4772
33.494,134.19,-84.0,-221.55,0.5538,-1.2102,-0.4758
33.511,128.87,-64.82,-221.2,0.5407,-1.2673,-0.4689
33.527,123.55,-52.22,-219.66,0.5206,-1.2551,-0.4543
33.545,118.37,-42.56,-216.79,0.5163,-1.2307,-0.4479
33.563,113.61,-40.53,-213.92,0.4894,-1.1082,-0.4255
33.579,107.94,-43.05,-210.77,0.4855,-1.0409,-0.3904
33.595,101.71,-44.73,-206.71,0.4762,-0.8764,-0.3811
33.611,96.39,-47.53,-201.39,0.4987,-0.9608,-0.3913
33.629,92.33,-55.51,-191.87,0.5226,-0.9125,-0.4021
33.646,90.3,-61.88,-182.21,0.5172,-0.8662,-0.4065
33.664,89.18,-61.25,-171.57,0.5036,-0.8086,-0.4113
33.681,87.08,-50.47,-163.24,0.4797,-0.7812,-0.3904
33.699,85.54,-29.89,-155.4,0.4367,-0.7524,-0.4035
33.716,85.54,-16.52,-147.7,0.4718,-0.7285,-0.4079
33.734,87.01,-14.28,-135.73,0.5704,-0.6631,-0.4187
33.751,88.9,-21.49,-123.9,0.6358,-0.6114,-0.4167
33.767,90.37,-24.36,-112.91,0.6256,-0.5519,-0.4367
33.785,91.63,-24.85,-103.39,0.6021,-0.5119,-0.4626
33.802,92.82,-28.98,-93.31,0.6012,-0.4518,-0.4787
33.816,93.87,-33.74,-86.5199,0.5719,-0.4191,-0.484
33.834,96.25,-40.11,-79.45,0.5626,-0.3523,-0.4884
33.85,98.14,-45.22,-73.22,0.5724,-0.3142,-0.4714
33.868,100.38,-46.13,-66.57,0.588,-0.3093,-0.4826
33.886,98.0,-59.22,-58.8,0.872,-0.1634,-0.6509
33.9,93.03,-97.0199,-36.05,0.7442,-0.1376,-0.8437
33.917,82.95,-116.2,-47.95,0.6368,-0.1556,-0.7402
33.931,73.71,-121.38,-45.22,0.65,-0.182,-0.8022
33.947,64.12,-109.9,-45.99,0.6617,-0.2025,-0.7007
33.963,55.79,-78.33,-50.61,0.7456,-0.1337,-0.587
33.979,49.77,-40.81,-56.49,0.8281,-0.1781,-0.5099
33.993,45.43,-15.96,-59.71,0.8466,-0.1952,-0.464
34.011,42.56,-3.22,-58.94,0.8564,-0.2005,-0.4396
34.029,42.4199,-11.6899,-52.85,0.852,-0.2049,-0.4523
34.045,43.05,-33.95,-44.66,0.8486,-0.179,-0.4923
34.063,42.49,-61.88,-36.05,0.8247,-0.1742,-0.5309
34.078,40.04,-87.22,-31.08,0.7944,-0.1424,-0.6085
34.096,32.06,-88.62,-28.63,0.769,-0.0819,-0.6807
34.111,21.91,-68.81,-28.49,0.7544,-0.0834,-0.6739
34.127,13.93,-43.75,-27.3,0.7339,-0.0546,-0.6534
34.141,8.05,-26.11,-25.27,0.7451,-0.0326,-0.6153
34.157,3.01,-11.9,-21.7,0.7642,-0.0331,-0.607
34.171,0.21,-1.54,-18.34,0.7749,-0.0209,-0.6148
34.187,-1.89,6.09,-14.98,0.7773,-0.0151,-0.6046
34.201,-3.64,9.52,-12.53,0.7881,-0.0034,-0.5953
34.217,-5.32,11.4799,-10.99,0.7837,-0.0122,-0.5807
34.233,-7.21,13.37,-10.71,0.7817,-0.0146,-0.5807
34.251,-9.52,15.4,-11.4799,0.7734,-0.0395,-0.5812
34.269,-12.25,16.94,-12.25,0.7729,-0.0278,-0.5909
34.285,-14.0,14.91,-12.6,0.7822,-0.0258,-0.5768
34.303,-15.19,10.92,-12.32,0.7725,-0.0244,-0.5841
34.321,-15.89,0.28,-11.27,0.7681,-0.0204,-0.5777
34.336,-15.89,-3.71,-10.5,0.7578,-0.0078,-0.5812
34.352,-16.52,-3.57,-9.8,0.7442,-0.0141,-0.6085
34.37,-17.01,0.84,-9.24,0.7168,-0.0063,-0.6246
34.387,-16.8,3.29,-8.68,0.7193,-0.0048,-0.6314
34.404,-15.89,1.12,-7.63,0.7261,-0.0107,-0.6295
34.42,-14.42,-3.57,-6.86,0.7295,-0.02,-0.6261
34.438,-13.37,-7.84,-5.88,0.7334,-0.0209,-0.6309
34.455,-12.88,-9.66,-5.18,0.7398,-0.0244,-0.647
34.468,-13.86,-7.63,-4.48,0.7368,-0.0351,-0.6514
34.486,-15.75,-3.92,-3.57,0.73,-0.0326,-0.6514
34.503,-17.08,-0.63,-2.1,0.7149,-0.0405,-0.6505
34.521,-17.08,1.19,0.0,0.7163,-0.0268,-0.6563
34.539,-16.3799,1.61,1.89,0.7217,-0.0292,-0.6466
34.555,-15.96,-0.63,3.78,0.7324,-0.0287,-0.6431
34.571,-15.89,-3.71,5.18,0.7402,-0.0229,-0.6358
34.587,-16.03,-6.37,5.95,0.7202,-0.0092,-0.6217
34.602,-15.89,-7.77,7.28,0.7051,-0.0004,-0.6085
34.62,-15.61,-6.65,8.33,0.6778,0.0073,-0.5963
34.637,-15.4,-1.96,9.66,0.6466,-0.0029,-0.5929
34.653,-15.19,3.99,10.78,0.628,-0.0092,-0.5919
34.668,-14.98,6.51,12.88,0.6212,-0.0151,-0.5904
34.686,-14.35,3.15,16.1,0.5978,-0.0278,-0.5782
34.704,-13.09,-6.65,21.0,0.5514,-0.0326,-0.5773
34.719,-12.74,-15.61,24.01,0.5001,-0.039,-0.5875
34.735,-14.28,-22.33,25.76,0.4772,-0.0697,-0.5875
34.753,-18.76,-24.99,27.65,0.4343,-0.0551,-0.5875
34.769,-24.92,-24.78,30.1,0.3821,-0.0883,-0.5978
34.785,-31.85,-20.23,31.71,0.3557,-0.1137,-0.6451
34.802,-39.97,-10.43,30.52,0.1966,-0.1703,-0.6978
34.818,-47.95,-3.29,30.03,0.3318,-0.4718,-0.749
34.836,-55.16,6.02,28.84,0.386,-0.4767,-0.7988
34.854,-67.83,6.44,30.31,0.405,-0.3333,-0.9232
34.868,-75.46,-7.98,34.02,0.488,-0.4084,-0.9862
34.887,-83.44,-31.08,39.7599,0.6456,-0.4562,-1.2063
34.905,-91.91,-34.65,40.95,0.7222,-0.3289,-1.2878
34.922,-96.81,-43.05,41.65,0.8696,-0.2464,-1.2858
34.94,-94.57,-59.43,44.94,0.953,-0.1649,-1.3683
34.957,-88.41,-67.41,44.03,0.8657,-0.1317,-1.4586
34.972,-76.51,-71.82,34.86,0.792,-0.0605,-1.5225
34.989,-60.55,-92.05,18.06,0.9042,-0.0575,-1.5567
35.004,-46.13,-116.76,-3.22,0.9067,-0.0009,-1.525
35.022,-26.25,-135.66,-28.84,0.8647,0.1288,-1.4932
35.039,-13.23,-136.2899,-57.12,0.8047,0.2044,-1.3337
35.057,-5.18,-128.73,-78.33,0.7622,0.3552,-1.1463
35.075,-11.83,-96.6,-100.1,0.5953,0.5304,-1.1297
35.093,-29.47,-53.48,-113.68,0.4191,0.5724,-0.9545
35.11,-47.18,-22.33,-124.95,0.3128,0.7466,-0.8422
35.128,-54.18,-18.55,-137.83,0.3372,0.7295,-0.81
35.142,-52.36,-50.05,-146.16,0.2596,0.8901,-0.8115
35.159,-47.81,-92.61,-158.62,0.2625,0.9706,-0.7315
35.176,-47.46,-121.17,-167.3,0.362,0.9764,-0.6295
35.193,-50.47,-119.49,-173.32,0.3957,0.9877,-0.5504
35.207,-53.97,-107.8,-174.09,0.3372,0.9745,-0.5563
35.222,-57.68,-90.93,-173.11,0.2274,0.9437,-0.506
35.24,-62.86,-76.72,-173.25,0.282,0.8862,-0.4743
35.254,-68.18,-66.43,-172.06,0.3538,0.853,-0.5441
35.27,-71.47,-53.13,-166.88,0.363,0.8837,-0.6871
35.287,-71.4,-26.04,-160.3,0.3167,0.9457,-0.8266
35.305,-65.66,-7.35,-147.91,0.3001,0.9267,-0.9067
35.323,-58.31,-12.81,-129.85,0.2669,0.8779,-0.9032
35.336,-47.95,-26.04,-115.78,0.221,0.7725,-0.813
35.349,-41.02,-33.46,-96.11,0.2,0.6739,-0.7368
35.364,-31.57,-30.31,-75.46,0.1083,0.5514,-0.6202
35.38,-19.32,-14.07,-55.44,0.0366,0.3713,-0.4865
35.396,-10.15,1.05,-33.6,-0.0834,0.1058,-0.4313
35.411,-5.18,10.08,-11.06,-0.1283,-0.0673,-0.4006
35.427,-5.39,16.24,6.93,-0.1054,-0.1527,-0.383
35.455,-7.35,31.85,32.97,-0.0214,-0.142,-0.3337
35.47,-4.62,25.06,42.63,0.0102,-0.1722,-0.3147
35.485,-0.49,6.02,48.93,0.0317,-0.2342,-0.282
35.503,1.61,-15.96,53.83,0.0244,-0.3035,-0.2488
35.521,5.04,-21.84,56.14,0.0463,-0.2752,-0.282
35.537,8.12,-20.23,59.08,0.0966,-0.2727,-0.4919
35.551,11.4799,-28.07,64.26,0.1356,-0.2752,-0.4958
35.567,14.91,-43.19,73.85,0.1922,-0.2703,-0.6353
35.581,17.29,-46.06,84.28,0.2127,-0.1922,-0.8339
35.597,19.6,-44.94,102.83,0.282,-0.1151,-1.0804
35.613,24.92,-48.44,130.2,0.3845,-0.1195,-1.4108
35.629,31.08,-49.7,156.52,0.4509,-0.0512,-1.7031
35.647,36.4,-46.34,189.28,0.587,0.059,-1.7528
35.664,38.22,-43.2599,212.1,0.6651,0.1727,-1.6494
35.68,36.96,-45.36,229.18,0.6783,0.1371,-1.5689
35.698,33.81,-52.71,243.81,0.607,-0.0566,-1.5533
35.711,26.04,-68.32,255.22,0.5001,-0.1473,-1.545
35.725,21.56,-91.07,286.37,0.3357,-0.2454,-1.5996
35.74,23.03,-115.22,303.17,0.423,-0.4709,-1.4103
35.755,34.16,-121.73,299.46,0.5856,-0.525,-1.2053
35.784,53.41,-95.83,322.98,0.6739,-0.5338,-1.0911
35.8,56.7,-82.95,343.49,0.688,-0.5319,-1.0282
35.816,55.23,-76.72,365.12,0.7246,-0.5299,-1.0301
35.834,49.07,-74.2699,388.71,0.7627,-0.5338,-1.0862
35.851,40.32,-52.78,405.37,0.7158,-0.5045,-1.1014
35.866,28.28,-24.92,415.38,0.6046,-0.445,-1.0609
35.882,14.63,-0.56,424.34,0.6339,-0.4016,-0.9803
35.896,-5.95,4.2,428.89,0.6514,-0.4016,-0.9408
35.912,-27.93,1.26,427.49,0.61,-0.4538,-0.8896
35.928,-53.9,-0.07,420.91,0.5636,-0.3762,-0.8452
35.944,-70.7699,15.82,416.99,0.6051,-0.0434,-0.8676
35.962,-77.91,44.31,417.34,0.8227,0.0253,-0.8271
35.977,-86.38,60.2,416.71,0.9018,-0.0824,-0.7471
35.995,-102.06,69.3,411.6,1.0233,-0.1781,-0.6753
36.013,-110.25,62.65,408.17,1.1614,-0.2781,-0.6539
36.031,-118.44,59.85,405.16,1.4269,-0.3923,-0.5558
36.049,-134.33,109.55,388.3599,1.4347,-0.7168,-0.3381
36.066,-163.24,167.37,361.76,1.5606,-0.7666,-0.1991
36.084,-176.05,168.98,336.0,1.8256,-0.5836,-0.1927
36.102,-162.05,108.22,321.79,1.99,-0.5285,-0.1337
36.12,-141.33,80.57,296.73,2.0217,-0.5826,0.1224
36.138,-119.49,151.83,249.97,2.1218,-0.8662,0.2332
36.156,-112.63,191.24,207.13,2.3448,-1.2121,0.3201
36.174,-92.19,120.68,186.83,2.9294,-1.5176,0.4592
36.19,-73.99,46.7599,170.52,3.1334,-1.849,0.708
36.208,-71.75,120.89,135.94,3.0783,-2.375,1.0584
36.226,-78.75,265.3,104.23,3.495,-2.9323,1.1965
36.242,-76.16,314.79,86.24,3.6746,-3.5926,1.3639
36.258,-63.14,271.81,67.2699,3.5706,-4.7985,1.87
36.275,-26.32,276.78,26.74,3.151,-5.9653,2.0588
36.293,78.12,276.22,-27.16,3.0246,-6.6982,1.5191
36.309,291.48,179.41,-64.61,3.0134,-6.5421,0.6285
36.324,540.4699,64.75,-129.64,2.7386,-6.1678,-0.2064
36.342,790.23,85.54,-241.01,2.2472,-7.3907,-0.9306
36.356,1036.28,199.64,-299.04,2.4165,-9.7785,-1.8441
36.374,1133.16,294.28,-322.98,2.2399,-11.7754,-2.6757
36.391,355.25,971.88,-98.49,5.367,12.5313,1.4605
36.407,548.6599,-404.6,-158.62,13.1198,-3.17,-3.4101
36.421,695.87,-346.3599,-198.66,-8.6444,-2.9763,-3.0055
36.437,881.3,-23.31,-454.02,-1.1575,-6.1336,-2.2862
36.451,1053.22,-365.89,-585.55,2.9675,-5.3304,-2.3424
36.467,1054.13,-812.84,-777.77,1.1936,-6.667,-2.2579
36.483,874.86,-1081.85,-1055.95,0.365,-7.6557,-2.0452
36.501,472.36,-1223.53,-1251.6,0.4509,-9.2149,-1.5152
36.517,100.94,-1369.6899,-1258.04,1.3249,-10.0484,-1.2029
36.532,-334.04,-1433.3199,-1101.8,1.6645,-9.7478,-0.567
36.55,-698.18,-1267.35,-752.71,1.1126,-8.1491,-0.5114
36.565,-814.87,-997.08,-486.22,1.0038,-6.7119,-0.1683
36.581,-827.19,-589.05,-249.41,0.549,-5.1566,-0.0854
36.599,-745.2199,-203.77,-90.93,0.507,-3.8473,0.2137
36.617,-656.74,-69.23,-1.33,0.1898,-3.0504,0.3552
36.635,-571.55,-114.1,69.0899,0.2454,-2.9104,0.6041
36.65,-504.77,-161.35,143.22,0.3547,-2.9606,0.9013
36.667,-455.63,-92.89,199.4299,0.1947,-3.1451,1.1155
36.685,-418.88,60.06,225.26,0.1146,-3.4462,1.3376
36.7,-411.95,170.59,230.23,0.1083,-3.9513,1.6626
36.718,-406.28,258.3,194.95,-0.362,-3.9,1.6094
36.732,-379.82,317.24,148.89,-1.2219,-3.3608,1.2268
36.749,-301.28,299.6,71.96,-1.483,-2.0696,0.7412
36.767,-166.81,156.31,24.78,-1.5664,-1.6069,0.5856
36.785,-64.4,31.85,-6.86,-1.4703,-1.6343,0.6822
36.803,56.42,-30.59,-29.75,-1.3468,-1.6918,0.7022
36.817,118.09,13.86,-39.2,-1.1419,-1.6635,0.6392
36.832,170.03,80.71,-37.87,-0.871,-1.501,0.5353
36.85,227.64,126.28,-17.36,-0.6851,-1.3956,0.3269
36.868,274.05,155.89,9.66,-0.5538,-1.3263,0.098
36.885,305.8299,160.72,42.14,-0.3567,-1.2375,-0.1717
36.902,329.49,171.01,77.07,-0.3191,-1.1629,-0.3864
36.916,341.95,196.91,99.47,-0.3362,-1.1155,-0.589
36.929,347.97,235.69,117.46,-0.3484,-1.095,-0.7251
36.944,346.78,272.8599,145.74,-0.24,-1.096,-0.8276
36.957,339.71,288.3299,168.98,-0.0761,-1.0926,-0.9437
36.973,327.39,296.03,204.33,0.0492,-1.1624,-1.0838
36.988,310.03,296.59,235.83,0.2396,-1.1482,-1.2024
37.004,290.22,305.27,269.29,0.2928,-1.1092,-1.3898
37.018,261.73,323.12,293.09,0.3235,-1.0999,-1.5093
37.035,234.85,337.54,317.1,0.362,-1.0404,-1.6055
37.049,212.73,342.16,335.02,0.4133,-0.9828,-1.6416
37.063,192.64,336.14,350.56,0.4787,-0.9189,-1.6914
37.078,178.2899,313.74,364.42,0.5587,-0.8896,-1.6918
37.092,161.7,276.15,377.09,0.6309,-0.9013,-1.687
37.12,143.64,204.05,389.27,0.6851,-0.7973,-1.6157
37.136,138.32,181.58,397.95,0.7754,-0.6753,-1.6377
37.154,136.4299,172.41,405.44,0.7583,-0.6178,-1.6289
37.171,135.38,165.27,409.3599,0.7788,-0.6168,-1.6338
37.187,132.86,167.09,412.8599,0.8344,-0.6666,-1.6196
37.205,125.93,168.14,416.43,0.8242,-0.6851,-1.585
37.222,117.32,128.45,419.65,0.9403,-0.6924,-1.5142
37.239,107.73,116.34,418.04,0.954,-0.6753,-1.4337
37.254,95.48,109.41,414.12,0.8842,-0.6558,-1.3356
37.269,84.0,121.73,411.74,0.9603,-0.5641,-1.3044
37.284,70.07,128.66,408.03,0.9813,-0.5397,-1.339
37.3,60.2,123.13,399.7,1.0125,-0.4416,-1.3156
37.315,52.64,103.32,390.81,1.0965,-0.364,-1.2566
37.33,49.91,74.62,381.92,1.1448,-0.3054,-1.2121
37.348,49.0,71.19,372.89,1.0843,-0.2078,-1.1999
37.365,46.62,96.81,364.21,0.9979,-0.1893,-1.196
37.381,38.43,113.96,354.27,1.0628,-0.3108,-1.1565
37.396,29.61,118.79,341.74,1.0955,-0.3142,-1.1341
37.412,19.39,114.66,330.3299,1.1204,-0.2415,-1.1087
37.429,9.03,110.25,321.23,1.1389,-0.0946,-1.1175
37.442,-0.84,92.4,312.62,1.2239,-0.1381,-1.0609
37.456,-10.01,52.85,304.15,1.2971,-0.0712,-1.0252
37.474,-18.97,4.55,285.1099,1.2927,0.0214,-0.9877
37.491,-26.11,0.77,262.0799,1.1926,0.1044,-0.955
37.505,-37.52,27.58,238.91,1.0828,0.1532,-0.9145
37.52,-47.88,69.3,215.46,1.0594,0.1961,-0.8735
37.549,-76.0899,106.82,169.61,1.1965,0.1215,-0.7432
37.566,-81.76,97.0899,149.38,1.2356,0.1786,-0.7295
37.584,-80.92,70.56,129.57,1.2268,0.1649,-0.7056
37.6,-75.53,66.92,115.36,1.1521,0.1039,-0.6685
37.618,-69.51,68.88,97.65,1.1282,0.0204,-0.627
37.635,-55.72,72.66,83.44,1.1219,0.0395,-0.6417
37.652,-40.46,73.22,70.07,1.1375,0.0273,-0.6451
37.67,-21.28,68.46,62.02,1.1648,0.0273,-0.6222
37.687,-6.65,62.79,36.4,1.1633,-0.0361,-0.5914
37.702,4.2,62.72,43.89,1.1204,-0.0834,-0.6036
37.719,16.73,76.58,30.03,1.0531,-0.098,-0.6426
37.735,24.08,101.08,14.21,0.9964,-0.1307,-0.67
37.753,37.59,125.44,-3.43,0.9657,-0.2186,-0.6968
37.77,49.91,137.41,-17.57,0.9506,-0.2679,-0.7495
37.786,64.61,133.7,-30.17,0.9413,-0.2991,-0.7656
37.802,80.29,117.46,-38.85,0.9286,-0.3264,-0.8052
37.82,94.92,96.88,-49.49,0.893,-0.3713,-0.8086
37.836,107.8,85.89,-59.29,0.8364,-0.4382,-0.8296
37.854,120.12,78.4,-69.37,0.8076,-0.4592,-0.8359
37.87,129.4299,69.93,-79.17,0.7842,-0.4845,-0.8432
37.885,135.38,62.09,-89.32,0.7607,-0.5241,-0.8149
37.901,138.74,55.51,-99.12,0.7329,-0.528,-0.8193
37.919,139.65,54.25,-108.29,0.6905,-0.5314,-0.8144
37.937,138.81,55.72,-117.81,0.6514,-0.586,-0.8081
37.955,136.4299,52.22,-125.44,0.6285,-0.6275,-0.8052
37.968,132.3,43.89,-129.4299,0.6153,-0.6295,-0.7744
37.982,128.8,33.6,-133.63,0.5899,-0.6324,-0.7564
38.0,123.69,25.27,-138.88,0.5729,-0.5997,-0.7363
38.018,115.15,12.25,-142.38,0.5543,-0.5699,-0.7271
38.035,109.27,7.63,-145.32,0.5167,-0.5704,-0.7085
38.051,103.39,7.07,-147.7,0.4894,-0.5802,-0.709
38.069,99.96,7.07,-149.31,0.4679,-0.5826,-0.6968
38.085,95.13,3.57,-148.89,0.467,-0.5519,-0.6832
38.101,94.43,-0.63,-146.65,0.4914,-0.527,-0.7149
38.116,95.13,-8.33,-142.8,0.5138,-0.5128,-0.7237
38.131,94.85,-15.47,-139.16,0.5119,-0.5602,-0.7339
38.146,93.5899,-20.23,-135.24,0.5148,-0.6309,-0.7617
38.162,91.98,-23.31,-131.25,0.5275,-0.6773,-0.7856
38.18,90.51,-28.91,-123.9,0.5616,-0.667,-0.8061
38.197,89.39,-38.64,-115.99,0.629,-0.5909,-0.833
38.214,87.71,-54.18,-106.75,0.6588,-0.5665,-0.8525
38.227,85.75,-63.56,-101.22,0.6871,-0.549,-0.8784
38.241,83.16,-71.61,-94.71,0.7188,-0.5616,-0.8886
38.257,80.43,-74.48,-87.5,0.7295,-0.5304,-0.8715
38.272,74.83,-70.63,-82.39,0.7027,-0.3894,-0.813
38.287,67.76,-61.95,-78.12,0.6744,-0.2771,-0.7812
38.305,60.55,-44.52,-74.41,0.6329,-0.1683,-0.7788
38.323,55.16,-20.44,-72.73,0.5694,-0.0302,-0.7949
38.338,52.5,0.7,-73.01,0.4919,0.0253,-0.7983
38.356,50.75,24.57,-73.71,0.4675,0.0688,-0.7842
38.372,49.84,33.32,-73.15,0.4836,0.1122,-0.7559
38.387,49.07,31.78,-71.75,0.5197,0.141,-0.7129
38.402,48.09,22.68,-68.6,0.5524,0.1883,-0.6797
38.416,47.18,10.57,-65.03,0.5826,0.2576,-0.6822
38.431,46.13,-0.56,-62.23,0.5797,0.282,-0.6729
38.446,43.4,-4.69,-60.76,0.5553,0.2854,-0.6675
38.464,40.81,-4.69,-61.25,0.5275,0.2757,-0.6534
38.482,34.16,-5.32,-63.98,0.5143,0.2361,-0.6095
38.499,30.03,-13.09,-65.94,0.587,0.2366,-0.588
38.514,26.67,-21.2099,-66.43,0.6578,0.2269,-0.5441
38.53,23.8,-22.89,-68.32,0.65,0.2098,-0.4899
38.545,21.14,-11.06,-72.45,0.607,0.2723,-0.4406
38.563,21.6299,19.53,-80.01,0.5529,0.2928,-0.3782
38.581,26.6,45.5,-85.68,0.6178,0.3874,-0.3376
38.596,34.37,56.77,-84.98,0.7783,0.4289,-0.3303
38.611,45.0099,51.52,-82.74,0.8852,0.4094,-0.2918
38.624,54.46,41.09,-80.71,0.9101,0.3938,-0.2664
38.638,62.09,38.71,-81.55,0.8686,0.3552,-0.2425
38.653,70.91,43.82,-84.35,0.8515,0.3298,-0.2044
38.669,78.19,49.84,-88.06,0.8598,0.2898,-0.1185
38.698,91.8399,46.27,-89.39,0.9579,0.3254,0.0009
38.716,101.29,63.84,-89.04,0.8793,0.4367,-0.0322
38.732,112.91,95.97,-89.25,0.8461,0.4343,-0.0351
38.746,121.94,117.04,-88.41,0.8169,0.3762,0.0248
38.762,129.22,123.9,-85.26,0.81,0.3791,0.0888
38.78,136.78,111.16,-80.22,0.8432,0.3796,0.098
38.796,143.78,101.15,-77.63,0.8276,0.3742,0.0536
38.811,151.83,103.46,-78.96,0.8115,0.345,0.0483
38.829,154.63,115.01,-85.12,0.8178,0.3074,0.1444
38.847,154.28,113.75,-93.87,0.8613,0.3533,0.1742
38.865,161.98,94.36,-101.22,1.0565,0.4582,0.0375
38.881,172.34,90.86,-110.04,1.2556,0.5612,-0.0649
38.896,173.67,50.19,-116.55,1.2517,0.7398,-0.586
38.912,161.35,34.3,-127.96,1.5079,1.0399,-0.6075
38.93,143.85,22.19,-144.06,2.0598,0.9838,-0.6944
38.947,132.86,35.07,-154.28,2.8445,0.5934,-0.4382
38.963,128.24,112.07,-174.58,2.6727,0.1625,-0.1268
38.981,130.06,210.42,-201.95,2.5444,-0.1849,0.0209
38.996,140.91,255.57,-211.26,2.1515,-0.4206,-0.1561
39.014,153.65,233.52,-201.74,1.911,-0.5982,-0.6012
39.031,158.76,146.9299,-177.52,1.7309,-0.3806,-0.8056
39.047,135.1,95.76,-145.6,0.9354,-0.3879,-2.052
39.062,90.37,106.54,-110.88,0.6339,-0.7349,-1.7782
39.078,53.9,63.14,-68.39,0.7393,-0.5914,-1.2595
39.096,35.91,-8.61,-45.9199,0.5158,-0.4606,-0.8271
39.114,33.32,-126.7,-30.17,0.1454,-0.0029,-0.8174
39.127,34.72,-236.25,0.0,-0.0009,0.344,-1.318
39.144,9.45,-266.0,41.09,-0.5382,0.426,-2.5815
39.159,-33.53,-199.15,58.38,-0.0395,-0.7383,-1.3615
39.174,-54.67,-131.25,56.28,0.3025,-0.1747,-1.1394
39.19,-69.23,-106.26,66.43,0.9935,-0.1693,-1.1214
39.208,-74.2,-144.34,91.14,0.9242,0.1229,-1.0174
39.226,-76.16,-205.59,105.35,1.1204,-0.2098,-1.0936
39.241,-65.5199,-237.58,113.54,1.1824,-0.0473,-0.9979
39.257,-59.43,-242.69,115.92,1.1668,0.1371,-0.9179
39.273,-51.45,-211.05,112.35,1.1463,0.2166,-0.6949
39.29,-40.6,-160.65,102.3399,0.954,0.3167,-0.5246
39.306,-28.35,-102.83,84.7,0.7129,0.5816,-0.3152
39.324,-15.47,-32.69,58.73,0.5768,0.8154,0.0248
39.342,-5.53,50.05,27.3,0.5167,0.8696,0.2449
39.359,4.48,113.47,2.73,0.4997,1.1077,0.1747
39.376,21.07,148.47,-14.56,0.2615,1.3195,0.122
39.392,40.04,147.21,-19.39,0.5953,1.1404,0.2454
39.41,54.11,128.87,-24.78,0.466,1.2922,0.2557
39.427,63.56,125.72,-32.55,0.5285,1.2487,0.2386
39.444,83.0899,124.6,-31.78,0.6168,1.381,-0.0629
39.46,106.19,111.51,-30.31,0.4582,1.3102,0.1112
39.478,117.46,91.56,-33.95,0.4684,1.2522,0.3303
39.492,111.3,83.0199,-48.37,0.4811,1.1863,0.5153
39.509,100.03,77.49,-70.07,0.8466,1.2536,0.2874
39.526,94.43,66.15,-88.97,1.0482,1.279,0.1283
39.542,96.25,67.55,-107.73,1.2107,1.0926,0.0556
39.556,104.51,85.96,-124.67,1.3078,0.8608,0.1058
39.572,117.95,122.78,-144.97,1.3834,0.708,0.0756
39.586,132.3,136.2899,-155.96,1.522,0.4709,0.06
39.602,149.31,118.23,-154.84,1.7289,0.0361,0.0756
39.616,163.94,59.29,-139.51,1.7143,-0.1942,-0.0502
39.631,178.2899,43.2599,-112.91,1.5713,-0.4611,-0.2269
39.646,186.9,43.82,-72.1,1.4596,-0.7163,-0.2191
39.661,186.55,75.39,-35.84,1.3229,-0.9389,-0.078
39.676,171.4299,111.02,-0.28,1.2248,-1.2287,-0.0722
39.691,144.34,148.05,38.85,1.0321,-1.2946,-0.2893
39.707,105.63,210.42,64.47,0.9589,-1.2253,-0.8017
39.724,80.5,229.39,79.03,1.014,-1.0501,-1.0521
39.741,74.83,128.17,80.71,1.0165,-0.9291,-1.055
39.759,69.3,17.64,70.0,0.6261,-0.8134,-0.913
39.775,43.61,7.0,48.79,0.1961,-0.9857,-0.8906
39.793,16.24,58.31,21.0,-0.1073,-0.9945,-0.9681
39.807,-24.01,58.45,16.45,0.0902,-0.9062,-1.0901
39.822,-46.34,-1.33,27.86,0.1937,-0.791,-1.0936
39.839,-64.54,-36.75,49.7,0.0727,-0.7886,-1.1794
39.854,-82.67,-0.35,70.98,0.1005,-0.7964,-1.24
39.871,-106.75,38.78,76.93,0.4548,-0.9828,-1.2717
39.887,-119.0,15.05,71.05,0.6456,-1.3014,-1.4112
39.901,-123.55,-65.66,71.96,1.1829,-1.6143,-1.077
39.916,-116.97,-140.07,80.57,1.6113,-1.8622,-0.7334
39.931,-107.66,-144.62,95.2699,1.6962,-1.5425,-0.6134
39.947,-98.63,-84.42,108.43,1.7592,-1.176,-0.4265
39.961,-99.12,-18.48,112.28,1.6689,-1.1116,-0.3191
39.976,-105.98,26.53,106.47,1.5025,-1.3122,-0.2137
39.991,-114.8,70.7699,93.24,1.238,-0.9784,-0.1781
40.006,-111.93,104.72,79.8,1.1565,-0.5143,-0.2557
40.021,-93.24,68.81,78.26,1.2185,-0.0814,-0.3494
40.036,-62.23,-35.14,82.46,1.178,0.06,-0.282
40.052,-39.06,-168.07,91.7699,1.2458,-0.2874,0.0248
40.07,-26.39,-168.77,101.71,1.1526,0.0551,0.0932
40.087,-23.17,-16.94,103.74,0.954,0.5236,0.2713
40.103,-41.86,79.17,90.0899,0.8266,0.1424,0.4211
40.119,-71.33,72.24,66.85,0.9628,-0.4016,0.383
40.134,-88.3399,21.07,47.18,0.8222,-0.8691,-0.0229
40.147,-85.05,37.1,33.6,0.6939,-0.5114,-0.4792
40.162,-62.37,57.47,32.27,0.6558,-0.2757,-0.8588
40.177,-29.61,-64.19,50.12,1.0438,-0.6222,-0.9345
40.192,-10.78,-230.65,78.33,1.2824,-1.2117,-0.6578
40.206,-3.78,-293.02,107.8,1.0399,-1.5142,-0.5982
40.22,2.73,-219.45,135.31,1.0897,-1.5367,-0.9276
40.234,12.81,-132.9299,168.56,1.1468,-1.3093,-1.1624
40.266,-17.99,-10.85,207.34,-0.0492,-2.132,-0.9891
40.284,-48.37,146.9299,215.81,-0.6402,-3.1661,-0.8852
40.302,-101.01,162.12,298.34,0.5729,-3.0997,-0.932
40.32,-155.33,-48.58,391.16,0.9291,-3.4189,0.3777
40.337,-220.99,-250.04,483.21,1.1004,-3.3462,1.481
40.351,-249.2,-238.7,551.04,1.7416,-3.4106,3.1402
40.367,-64.82,-251.72,178.64,2.8299,9.2602,-13.7606
40.385,99.4,-486.36,247.1,-5.0473,2.5424,-4.5096
40.402,74.83,-131.39,189.0,0.6636,-0.4606,3.8303
40.42,-39.83,231.35,155.47,-1.2424,-1.7094,-0.4762
40.438,-118.02,460.25,73.64,-2.7503,0.7612,-0.3152
40.456,-114.73,274.68,82.18,0.811,-0.099,-0.9384
40.471,-102.69,118.23,75.81,1.0506,-0.4675,-0.0873
40.487,-105.42,23.59,69.79,1.3376,-0.7617,-0.1161
40.501,-118.16,91.91,75.18,1.7528,-0.8413,0.0917
40.516,-130.48,245.28,90.86,1.7675,-0.7149,-0.0122
40.531,-138.39,367.57,106.47,1.8212,-0.71,-0.324
40.547,-129.92,346.01,111.3,1.7411,-0.6958,-0.8003
40.563,-103.18,236.53,105.49,1.4874,-0.6602,-0.9491
40.579,-78.75,167.23,90.65,1.2243,-0.5206,-0.9301
40.597,-55.93,173.1799,72.94,0.9389,-0.3176,-0.7603
40.614,-50.75,183.47,64.19,0.9491,-0.383,-0.5734
40.631,-56.35,159.25,66.36,1.1263,-0.3484,-0.4079
40.649,-61.67,158.83,65.8,0.9925,-0.0819,-0.4611
40.665,-67.2699,172.27,56.35,0.7154,0.0683,-0.4392
40.682,-65.45,147.28,49.63,0.8012,0.3137,-0.5177
40.7,-54.39,108.01,38.08,0.667,0.3655,-0.6524
40.717,-47.74,75.74,16.45,0.5109,0.1215,-0.485
40.734,-49.07,76.16,-5.53,0.4309,0.0107,-0.3128
40.749,-50.96,96.18,-27.51,0.3982,-0.0263,-0.4011
40.765,-39.13,98.8399,-42.21,0.3381,0.1268,-0.5987
40.781,-18.41,49.21,-46.97,0.5031,0.1063,-0.7837
40.795,7.63,-10.22,-36.4,0.9764,-0.3464,-0.8027
40.813,34.72,-80.57,-11.62,1.1629,-0.8818,-0.4845
40.83,51.1699,-103.04,9.17,1.4966,-1.4313,-0.363
40.846,52.29,-75.88,17.29,1.3502,-2.1032,-0.0097
40.861,30.87,-31.36,7.35,0.771,-2.1881,0.3699
40.877,2.24,20.16,-17.36,0.282,-1.6226,0.4923
40.895,-27.51,58.66,-45.57,0.2156,-0.7998,0.1434
40.911,-35.98,86.03,-63.21,0.1068,-0.3918,-0.1556
40.929,-37.73,101.22,-84.8399,0.0473,-0.3562,-0.2186
40.944,-40.11,98.14,-97.65,0.098,-0.3445,-0.1781
40.959,-44.03,78.68,-106.05,0.1683,-0.1971,-0.14
40.974,-51.31,54.39,-109.13,0.1542,-0.0107,-0.057
40.989,-61.53,30.59,-113.19,0.0614,0.2152,0.0512
41.005,-78.89,17.43,-119.63,-0.0409,0.2386,0.0922
41.021,-97.79,24.29,-130.27,-0.081,0.0151,0.0229
41.039,-111.65,50.33,-145.0399,-0.0419,-0.304,-0.1937
41.057,-113.82,85.61,-153.09,0.2186,-0.4772,-0.4758
41.075,-103.74,92.19,-144.83,0.6641,-0.6997,-0.5529
41.093,-99.12,51.38,-113.68,1.2468,-1.3766,-0.3298
41.109,-104.79,6.16,-77.35,1.5503,-1.6894,-0.1058
41.127,-115.85,-30.31,-38.99,1.5435,-1.4781,-0.039
41.145,-128.87,-43.61,-4.27,1.1375,-0.4718,-0.2571
41.161,-126.07,-12.11,13.3,0.7686,0.2386,-0.6222
41.178,-115.78,43.2599,16.24,0.5036,0.3479,-0.7778
41.192,-102.83,110.39,6.86,0.2908,0.0161,-0.7534
41.208,-93.31,155.4,-10.43,0.1961,-0.3074,-0.7017
41.225,-83.37,161.0,-32.06,0.2986,-0.6573,-0.6851
41.24,-67.83,123.13,-33.6699,0.9857,-0.8969,-0.7588
41.257,-43.75,45.78,-2.38,1.9417,-1.1228,-0.9037
41.275,-23.45,-64.4,59.22,2.642,-1.4361,-0.5553
41.291,-24.64,-115.01,86.73,1.7553,-1.9251,-0.2181
41.309,-44.52,-85.75,68.46,1.034,-2.0618,-0.2381
41.326,-61.11,15.82,26.81,0.1869,-1.7909,-0.6485
41.341,-62.51,75.32,-11.2,-0.0346,-1.1541,-0.8935
41.356,-50.75,94.71,-43.47,0.0732,-0.5114,-0.9584
41.372,-36.47,59.22,-61.25,0.1678,-0.1483,-0.6627
41.388,-30.73,-12.39,-75.95,0.182,-0.1215,-0.5529
41.406,-33.11,-86.24,-91.56,0.1102,-0.3664,-0.4577
41.423,-40.6,-122.15,-101.92,0.2093,-0.4435,-0.466
41.439,-49.14,-132.3,-108.43,0.3264,-0.4148,-0.5616
41.454,-57.54,-125.09,-112.07,0.4406,-0.5538,-0.6495
41.47,-67.69,-111.65,-112.14,0.6529,-1.0257,-0.5392
41.488,-83.58,-106.96,-100.5199,0.8579,-1.1555,-0.4884
41.501,-101.78,-105.7,-83.79,1.3014,-0.9423,-0.7432
