timestamp,gyrox,gyroy,gyroz,accelx,accely,accelz
0.713,-42.07,-4.62,25.62,1.1541,-0.1293,-0.1073
0.728,-43.96,-6.65,23.8,1.1633,-0.1381,-0.1161
0.745,-45.85,-9.17,21.0,1.1521,-0.1439,-0.118
0.761,-47.81,-10.92,17.15,1.1341,-0.1629,-0.1215
0.777,-49.7,-12.04,12.11,1.1224,-0.162,-0.1268
0.794,-51.73,-12.6,7.28,1.0901,-0.1483,-0.1405
0.812,-52.85,-13.09,2.17,1.0604,-0.1063,-0.1356
0.828,-53.13,-13.16,-1.4,1.0306,-0.0756,-0.1307
0.844,-52.57,-13.58,-2.52,1.0233,-0.06,-0.1234
0.86,-51.66,-13.72,-0.91,1.0267,-0.0619,-0.1254
0.874,-50.61,-13.86,1.47,1.0028,-0.0624,-0.118
0.892,-49.4199,-13.23,4.27,0.9803,-0.0688,-0.118
0.91,-47.95,-12.25,6.86,0.9476,-0.0644,-0.1044
0.923,-46.97,-10.78,11.2,0.9428,-0.0941,-0.0863
0.937,-47.6,-8.33,27.37,0.911,-0.1854,-0.1039
0.951,-49.28,-5.11,53.27,0.9052,-0.2693,-0.1327
0.983,-56.35,2.1,81.62,1.0506,-0.3303,-0.2103
1.0,-58.24,3.01,71.47,1.1785,-0.2605,-0.1956
1.015,-57.33,2.94,58.45,1.159,-0.2518,-0.2039
1.03,-55.37,1.89,39.62,1.1428,-0.1956,-0.2117
1.046,-52.22,1.61,21.84,1.0545,-0.1244,-0.2083
1.064,-48.86,1.54,0.63,1.0467,-0.0668,-0.1595
1.079,-45.29,1.75,-11.13,1.0418,-0.0112,-0.1786
1.096,-41.37,0.98,-21.77,1.0301,-0.0078,-0.2366
1.114,-37.94,0.0,-27.65,0.9857,-0.0483,-0.2723
1.128,-36.54,-0.14,-29.82,0.914,-0.1078,-0.2781
1.146,-36.68,1.12,-29.12,0.8579,-0.1556,-0.2937
1.164,-38.57,3.5,-24.43,0.8188,-0.1527,-0.301
1.181,-39.62,6.51,-14.98,0.7847,-0.1839,-0.284
1.199,-41.02,10.36,1.47,0.7905,-0.2947,-0.2449
1.214,-41.86,13.93,19.4599,0.772,-0.3054,-0.2371
1.23,-42.35,17.43,33.18,0.7603,-0.2903,-0.2415
1.246,-42.84,21.28,37.8,0.7866,-0.2679,-0.2532
1.262,-43.82,24.15,35.0,0.8437,-0.2308,-0.2684
1.278,-44.52,25.9,25.76,0.9101,-0.1932,-0.2854
1.291,-45.0099,26.53,15.68,0.9369,-0.1737,-0.2737
1.306,-45.36,26.25,5.53,0.9691,-0.1454,-0.2625
1.32,-45.29,24.64,-3.85,1.0125,-0.1049,-0.2561
1.334,-44.45,22.68,-11.41,1.0282,-0.0712,-0.2493
1.348,-43.4,19.74,-16.59,1.0409,-0.0444,-0.2405
1.364,-42.21,16.66,-19.04,1.0252,-0.0405,-0.2464
1.379,-40.6,13.72,-18.2,1.0018,-0.0331,-0.2342
1.396,-39.34,10.92,-13.72,0.993,-0.0546,-0.2278
1.413,-38.71,7.49,-8.61,0.953,-0.0688,-0.2181
1.429,-38.29,6.37,-3.15,0.8862,-0.0766,-0.2054
1.458,-38.43,5.6,3.22,0.8183,-0.0463,-0.1498
1.474,-38.57,6.23,5.53,0.8247,-0.0409,-0.1205
1.492,-38.78,6.86,7.21,0.8466,-0.0107,-0.1083
1.51,-37.1699,7.07,6.51,0.8813,0.0771,-0.1166
1.525,-34.58,6.86,4.9699,0.9257,0.119,-0.121
1.54,-31.64,6.79,4.06,0.9506,0.1468,-0.1161
1.555,-28.56,6.65,4.9,0.9652,0.1068,-0.0976
1.571,-25.34,6.23,5.67,1.013,0.1483,-0.1122
1.587,-21.77,5.81,5.88,1.0409,0.1956,-0.1229
1.602,-18.76,5.46,7.0,1.0257,0.1542,-0.1127
1.62,-15.75,5.6,9.87,1.0189,0.0888,-0.0976
1.637,-14.14,6.09,11.97,1.0228,0.0585,-0.0912
1.655,-13.23,7.14,12.46,1.0121,0.0346,-0.0751
1.671,-12.88,8.82,11.34,1.0062,0.0219,-0.0624
1.689,-12.39,10.29,8.05,0.9813,0.0375,-0.0317
1.703,-11.34,12.53,5.04,0.9652,0.0766,-0.0268
1.721,-8.33,14.77,1.89,0.9642,0.1166,-0.0087
1.735,-5.67,16.17,0.07,1.0111,0.1293,-0.0063
1.75,-2.17,16.73,0.49,1.095,0.16,-0.0326
1.765,3.08,15.89,5.32,1.2253,0.1215,-0.0658
1.781,7.21,12.81,16.87,1.3624,-0.0463,-0.1019
1.797,11.06,8.75,27.51,1.4322,-0.1351,-0.1473
1.811,13.23,4.2,29.82,1.4117,-0.1634,-0.1654
1.829,15.4,0.28,21.7,1.3644,-0.1571,-0.1747
1.847,16.59,-2.52,5.04,1.2644,-0.1995,-0.181
1.864,16.8,-4.76,-8.96,1.2434,-0.241,-0.1991
1.88,16.66,-6.93,-18.9,1.2404,-0.2771,-0.2435
1.898,16.73,-9.7299,-26.18,1.2165,-0.2991,-0.2796
1.915,16.59,-12.04,-32.97,1.1092,-0.2644,-0.2908
1.931,16.3799,-12.88,-42.77,0.9974,-0.2147,-0.2874
1.947,16.17,-12.74,-52.08,0.8598,-0.1908,-0.2801
1.963,15.47,-11.55,-56.77,0.7705,-0.2025,-0.261
1.979,14.0,-9.38,-57.26,0.7051,-0.2303,-0.2762
1.996,11.4799,-7.0,-51.66,0.7022,-0.3167,-0.2884
2.012,7.49,-4.76,-39.2,0.7193,-0.405,-0.3015
2.029,3.01,-3.01,-19.25,0.7671,-0.3855,-0.3103
2.046,-2.17,-1.89,3.71,0.8037,-0.4606,-0.282
2.063,-7.56,-1.05,28.28,0.8535,-0.5177,-0.2591
2.08,-13.44,-0.35,49.91,0.8891,-0.5299,-0.2396
2.096,-17.36,0.42,63.77,0.9057,-0.5099,-0.2269
2.112,-21.6299,1.61,68.11,0.8788,-0.4601,-0.1986
2.128,-24.57,3.71,62.3,0.8574,-0.4138,-0.1664
2.141,-27.86,5.81,52.92,0.8466,-0.3484,-0.1459
2.157,-30.52,8.1899,35.63,0.8481,-0.3006,-0.1332
2.173,-33.32,9.8,14.91,0.8808,-0.1947,-0.1488
2.189,-35.49,10.5,-2.38,0.9398,-0.1693,-0.1688
2.204,-37.52,10.22,-17.15,0.9886,-0.1878,-0.1839
2.218,-39.62,9.1,-24.29,1.0047,-0.2025,-0.179
2.234,-41.86,8.05,-26.81,1.0052,-0.1859,-0.1683
2.249,-44.52,6.65,-25.69,0.9984,-0.1805,-0.1473
2.267,-47.11,5.6,-21.07,0.9935,-0.2005,-0.1376
2.282,-51.38,4.41,-14.35,0.9901,-0.2288,-0.1239
2.312,-60.2,3.57,-2.8,0.9437,-0.2464,-0.1195
2.328,-64.89,3.99,-0.07,0.9081,-0.1844,-0.1029
2.341,-68.81,4.83,2.17,0.893,-0.2064,-0.0883
2.355,-73.22,5.32,3.64,0.9052,-0.2196,-0.0702
2.369,-77.63,5.6,3.64,0.9486,-0.2308,-0.0692
2.383,-81.48,5.6,3.08,0.9808,-0.2542,-0.0663
2.397,-85.89,5.18,3.29,1.0077,-0.2332,-0.0517
2.426,-90.79,3.5,10.64,1.0062,-0.0717,-0.0331
2.441,-90.79,2.8,17.36,1.014,-0.0097,-0.0214
2.455,-89.74,2.17,22.19,1.0247,0.0483,-0.0092
2.471,-87.01,1.19,24.78,1.0633,0.0907,-0.0195
2.485,-84.14,0.28,25.62,1.0687,0.0951,-0.0419
2.5,-81.2,-0.77,22.68,1.097,0.1185,-0.0561
2.515,-77.7699,-1.47,18.1299,1.1145,0.1312,-0.0634
2.531,-75.04,-2.38,13.16,1.135,0.0956,-0.0605
2.549,-72.87,-3.15,7.56,1.1575,0.079,-0.0673
2.567,-69.0199,-5.81,3.08,1.1809,0.0976,-0.078
2.583,-66.78,-8.54,0.77,1.2463,0.0224,-0.0941
2.598,-66.08,-10.92,-0.35,1.2766,-0.0492,-0.1151
2.614,-66.71,-13.44,-2.94,1.2683,-0.0863,-0.1185
2.629,-68.04,-14.77,-5.67,1.2322,-0.1088,-0.0961
2.643,-69.86,-15.47,-6.51,1.2073,-0.1424,-0.0858
2.661,-72.31,-16.17,-5.7399,1.2141,-0.1888,-0.0985
2.679,-77.14,-16.66,0.28,1.2131,-0.261,-0.1122
2.696,-80.85,-16.73,9.31,1.177,-0.2464,-0.1034
2.712,-83.0199,-16.52,20.02,1.1648,-0.2649,-0.0951
2.73,-84.8399,-16.31,30.1,1.1843,-0.2576,-0.1283
2.748,-86.66,-16.94,33.32,1.1785,-0.2147,-0.1776
2.765,-86.03,-17.08,31.01,1.0413,-0.1288,-0.1756
2.781,-84.35,-17.01,24.29,0.8998,-0.0634,-0.1639
2.795,-82.39,-17.01,15.05,0.8452,0.0429,-0.1561
2.813,-79.94,-17.01,-2.31,0.8081,0.0287,-0.162
2.831,-78.75,-16.1,-35.84,0.6919,-0.0331,-0.1786
2.849,-77.91,-13.79,-31.64,0.6251,-0.0351,-0.1873
2.867,-77.49,-10.29,-36.68,0.5924,-0.1019,-0.14
2.885,-77.91,-7.21,-33.32,0.6139,-0.1093,-0.1166
2.898,-78.26,-4.41,-25.41,0.6636,-0.1322,-0.1151
2.915,-78.61,-0.98,-12.6,0.6905,-0.1493,-0.1171
2.93,-78.82,1.96,1.96,0.7593,-0.142,-0.1351
2.944,-78.54,4.62,15.05,0.8559,-0.1083,-0.1449
2.961,-76.93,6.37,29.75,0.9472,-0.0639,-0.1551
2.979,-73.78,7.28,42.07,1.0433,-0.0175,-0.179
2.995,-69.93,7.28,47.25,1.1067,0.0458,-0.183
3.009,-66.43,7.0,47.74,1.0765,0.0746,-0.1683
3.027,-62.51,7.98,38.99,1.0067,0.0941,-0.1385
3.045,-59.22,9.17,21.0,0.9272,0.1507,-0.1166
3.061,-56.98,10.15,2.8699,0.913,0.2171,-0.1146
3.079,-54.04,10.5,-12.32,0.9276,0.283,-0.121
3.097,-50.61,9.52,-22.12,0.9413,0.2932,-0.1239
3.115,-45.9199,7.84,-22.26,0.9638,0.1922,-0.101
3.131,-42.63,6.09,-15.47,0.9925,0.2015,-0.0917
3.145,-38.85,4.83,-7.21,0.9755,0.2557,-0.0961
3.16,-34.72,4.34,2.45,0.9442,0.2522,-0.079
3.176,-30.38,4.62,9.31,0.9379,0.2693,-0.0692
3.194,-26.11,5.39,14.14,0.9418,0.283,-0.0873
3.21,-21.98,6.02,15.05,0.9735,0.2903,-0.0912
3.228,-16.94,6.3,14.7,1.0169,0.2864,-0.1
3.243,-13.09,5.88,14.14,1.0701,0.2664,-0.1083
3.258,-8.75,4.69,13.37,1.1214,0.2449,-0.1195
3.271,-5.6,3.22,13.16,1.138,0.22,-0.141
3.285,-2.17,1.75,13.93,1.1604,0.1966,-0.1668
3.299,1.19,0.7,14.98,1.1546,0.1668,-0.1747
3.316,4.48,-1.05,16.45,1.1492,0.1439,-0.1844
3.344,7.77,-1.47,17.22,1.0477,-0.0185,-0.141
3.361,6.93,-0.14,15.4,1.0477,-0.0868,-0.1293
3.378,4.34,0.49,15.54,1.1014,-0.1668,-0.1244
3.393,1.68,0.14,18.48,1.1975,-0.222,-0.1444
3.408,-1.19,-1.4,21.49,1.2551,-0.2444,-0.1903
3.423,-4.2,-2.66,22.05,1.2322,-0.2371,-0.2078
3.438,-6.37,-3.15,18.9,1.1892,-0.1947,-0.1922
3.454,-8.12,-3.15,12.88,1.1424,-0.1556,-0.1634
3.472,-8.4,-2.8699,3.22,1.1189,-0.1049,-0.1571
3.49,-6.51,-2.59,-8.4,1.057,-0.0034,-0.1781
3.505,-3.5,-1.89,-18.62,0.9784,0.0668,-0.1815
3.52,0.7,-1.12,-30.17,0.9281,0.1137,-0.1678
3.535,5.04,-0.42,-37.73,0.8993,0.1571,-0.179
3.55,9.45,0.28,-43.33,0.894,0.14,-0.1751
3.565,13.51,0.14,-44.38,0.8959,0.1517,-0.1903
3.58,17.78,-0.56,-38.29,0.9223,0.0492,-0.1698
3.596,19.81,-1.47,-25.41,0.934,-0.0732,-0.1503
3.612,20.16,-2.03,-10.08,0.9296,-0.1766,-0.1483
3.63,19.11,-1.89,3.92,0.9223,-0.2015,-0.1639
3.648,16.1,-0.84,11.13,0.8896,-0.2069,-0.1342
3.665,13.44,0.49,14.42,0.8774,-0.202,-0.1122
3.679,10.85,1.26,17.29,0.9193,-0.2196,-0.1083
3.697,7.84,1.82,22.26,0.9633,-0.24,-0.1185
3.715,3.71,1.75,27.86,1.0101,-0.2918,-0.1268
3.732,0.0,1.47,31.22,1.056,-0.2976,-0.1527
3.75,-3.78,0.98,29.12,1.0208,-0.222,-0.1708
3.767,-6.3,1.75,18.55,0.9315,-0.1024,-0.1717
3.784,-7.49,3.85,6.86,0.8549,-0.0351,-0.1444
3.802,-7.14,5.39,-1.47,0.8125,0.0429,-0.1263
3.82,-4.13,7.0,-4.62,0.8457,0.1215,-0.1395
3.836,-1.68,6.23,0.28,0.952,0.0834,-0.161
3.852,0.7,4.83,9.03,0.9896,0.0473,-0.1654
3.87,1.75,3.57,15.68,1.0135,0.0273,-0.1673
3.888,1.26,2.45,17.64,1.0223,0.0195,-0.1683
3.903,0.91,1.54,14.84,1.0257,0.0468,-0.1722
3.919,0.49,0.77,10.92,1.0535,0.0375,-0.1742
3.937,-0.77,-0.63,7.35,1.0984,-0.0375,-0.1839
3.955,-5.95,-1.75,4.9,1.1194,-0.141,-0.1956
3.971,-11.2,-2.03,0.77,1.0838,-0.1239,-0.2
3.985,-15.89,-1.75,-3.29,1.0574,-0.1556,-0.1771
4.001,-21.28,-1.19,-5.11,1.033,-0.1756,-0.1468
4.015,-25.83,-0.63,-5.6,1.0277,-0.1771,-0.1424
4.03,-30.03,-0.14,-5.39,1.0413,-0.1737,-0.1615
4.046,-34.72,-0.21,-3.99,1.0301,-0.1629,-0.1751
4.064,-39.13,-0.42,-4.48,1.0111,-0.1034,-0.1805
4.079,-41.02,-0.91,-5.11,1.0003,-0.0429,-0.1717
4.097,-42.14,-2.17,-3.78,1.0247,-0.0102,-0.1634
4.115,-42.63,-4.55,1.47,1.054,-0.0136,-0.1551
4.129,-42.07,-6.37,8.82,1.1136,0.0039,-0.1561
4.147,-39.97,-9.87,19.8799,1.1458,0.0117,-0.1595
4.165,-37.38,-14.14,35.07,1.2883,-0.0248,-0.1615
4.18,-34.86,-18.1299,46.41,1.3678,-0.0863,-0.1703
4.196,-34.37,-22.33,56.7,1.4054,-0.2376,-0.1795
4.212,-36.47,-25.1299,59.57,1.4083,-0.3606,-0.1859
4.23,-39.48,-26.04,51.59,1.3722,-0.3689,-0.2176
4.248,-45.71,-23.66,34.5099,1.1697,-0.3664,-0.1385
4.266,-47.81,-20.72,9.03,0.9535,-0.2308,-0.1278
4.284,-48.23,-14.98,-19.4599,0.7973,-0.0722,-0.1454
4.302,-47.46,-9.9399,-40.95,0.6817,-0.0492,-0.1898
4.32,-47.11,-5.25,-57.96,0.6422,-0.0263,-0.1405
4.338,-46.7599,-1.33,-64.89,0.63,0.0029,-0.1263
4.354,-47.04,2.17,-64.54,0.6148,-0.0058,-0.1278
4.372,-47.39,6.09,-54.81,0.6134,-0.0156,-0.1361
4.39,-48.58,10.01,-38.22,0.629,-0.0473,-0.1576
4.406,-49.63,14.07,-21.98,0.7212,-0.0839,-0.2
4.42,-51.45,13.93,-1.54,0.9911,-0.2332,-0.2522
4.435,-53.27,14.84,24.43,0.9096,-0.2196,-0.2117
4.451,-55.3,16.66,41.5099,0.8422,-0.1737,-0.1576
4.467,-56.49,19.81,47.18,0.8374,-0.0756,-0.1395
4.485,-56.63,22.19,47.18,0.911,-0.02,-0.1405
4.503,-54.81,22.19,45.57,1.0223,0.0473,-0.1664
4.52,-51.73,20.16,41.72,1.1184,0.1151,-0.1683
4.534,-47.6699,17.99,35.49,1.1019,0.1834,-0.1678
4.551,-41.93,14.63,25.2,1.1126,0.1942,-0.1708
4.569,-37.8,10.92,10.71,1.0862,0.1898,-0.1473
4.585,-34.65,8.1899,-1.33,1.0853,0.1629,-0.1039
4.601,-32.55,4.83,-10.92,1.0555,0.1307,-0.0707
4.615,-31.64,2.94,-20.09,1.0374,0.098,-0.0483
4.63,-32.06,0.84,-30.73,1.0394,0.0234,-0.0409
4.646,-33.18,-0.56,-38.22,1.0038,0.0122,-0.0195
4.664,-33.95,-1.54,-44.03,0.9696,0.0287,0.0039
4.678,-33.88,-2.73,-42.63,1.0145,0.0336,0.0336
4.692,-33.46,-4.13,-37.24,1.0369,0.0112,0.0492
4.706,-32.55,-5.6,-30.8,1.0487,0.018,0.0488
4.734,-28.91,-7.56,-19.6,1.0189,0.057,0.0771
4.752,-25.1299,-8.47,-18.76,1.0623,0.1327,0.0448
4.768,-21.42,-9.24,-22.33,1.0653,0.1683,0.0024
4.783,-18.27,-9.38,-28.77,1.0579,0.1737,-0.0287
4.799,-14.35,-9.17,-34.5099,1.0648,0.2391,-0.0419
4.816,-9.1,-8.75,-37.94,1.0828,0.3284,-0.0444
4.83,-3.85,-8.4,-37.1,1.118,0.3523,-0.0575
4.848,3.08,-8.12,-31.08,1.1658,0.2913,-0.1019
4.863,7.98,-7.42,-21.35,1.1848,0.2684,-0.1356
4.879,14.35,-6.65,-7.49,1.1843,0.3215,-0.1517
4.897,20.02,-7.14,10.99,1.2273,0.4084,-0.1576
4.911,29.4,-8.96,26.88,1.3068,0.5821,-0.2059
4.928,37.1,-11.55,43.75,1.2336,0.3474,-0.2166
4.944,41.37,-13.44,58.24,1.1292,0.1151,-0.1673
4.96,43.68,-14.14,61.53,1.0745,0.0346,-0.1556
4.975,45.36,-14.63,51.03,1.0272,0.0488,-0.1947
4.99,46.34,-14.7,34.37,0.9389,0.0307,-0.2405
5.005,46.48,-14.21,15.26,0.9228,0.0448,-0.1268
5.02,46.62,-12.95,-7.91,0.8779,0.0424,-0.2649
5.035,46.34,-11.2,-26.32,0.8471,0.0034,-0.263
5.05,45.64,-9.31,-38.29,0.7876,-0.0405,-0.2469
5.065,44.94,-6.93,-43.19,0.7573,-0.0732,-0.2054
5.081,43.54,-4.83,-41.37,0.7505,-0.0741,-0.18
5.099,41.79,-2.31,-32.41,0.7363,-0.0775,-0.1644
5.116,38.99,-0.42,-22.19,0.8154,-0.161,-0.1634
5.131,36.05,0.63,-11.97,0.8554,-0.2566,-0.1683
5.148,31.99,2.1,-2.03,0.8344,-0.2483,-0.1512
5.166,26.67,3.78,7.14,0.8564,-0.2571,-0.1473
5.183,21.6299,5.25,12.04,0.8774,-0.2596,-0.1312
5.2,15.89,7.21,14.77,0.8915,-0.2205,-0.1278
5.215,12.39,8.82,16.17,0.9003,-0.18,-0.122
5.23,8.89,10.64,19.95,0.973,-0.1756,-0.1288
5.245,4.76,10.43,28.91,1.1082,-0.2483,-0.1468
5.261,1.19,9.17,42.35,1.1794,-0.2654,-0.1927
5.279,-2.38,7.0,50.96,1.1956,-0.2547,-0.2113
5.297,-7.07,6.44,46.2,1.0579,-0.1527,-0.2581
5.313,-9.66,7.0,39.83,0.994,-0.08,-0.2278
5.331,-10.78,8.54,32.97,0.911,-0.0531,-0.201
5.348,-12.04,10.5,27.65,0.8583,-0.0248,-0.1605
5.365,-12.46,12.81,21.98,0.8364,0.037,-0.1751
5.381,-12.6,14.84,19.18,0.8842,0.0473,-0.1869
5.398,-12.88,15.61,20.79,0.9696,-0.0078,-0.2244
5.413,-13.44,14.7,23.8,1.0579,-0.0863,-0.1952
5.431,-14.91,12.53,23.52,1.0828,-0.1034,-0.1917
5.447,-17.08,10.22,19.74,1.0862,-0.0785,-0.1966
5.463,-18.9,9.03,15.26,1.0404,0.0112,-0.2205
5.48,-20.86,7.91,13.65,1.0213,0.0048,-0.1815
5.494,-22.89,7.91,19.95,1.0111,-0.1015,-0.1366
5.511,-25.48,7.14,32.7599,1.0701,-0.1864,-0.1356
5.529,-27.51,5.39,42.14,1.1599,-0.1898,-0.1898
5.545,-28.91,3.92,46.13,1.1565,-0.1873,-0.2122
5.56,-29.75,1.96,51.59,1.0091,-0.183,-0.2093
5.575,-30.38,4.62,58.87,0.8442,-0.1717,-0.0956
5.59,-33.18,8.47,57.26,0.9579,-0.2366,-0.1063
5.606,-35.91,11.34,59.22,1.1023,-0.4689,-0.1483
5.621,-41.16,12.11,58.8,1.0911,-0.5153,-0.1976
5.639,-45.64,14.98,40.18,1.0252,-0.345,-0.1956
5.656,-51.31,14.84,18.69,1.1692,-0.4226,-0.1483
5.673,-56.91,10.85,4.2,1.2892,-0.4704,-0.1088
5.686,-60.76,5.67,-3.22,1.2102,-0.383,-0.1166
5.7,-64.12,1.75,-12.39,1.136,-0.1605,-0.1629
5.714,-66.57,-2.45,-21.07,1.2175,-0.0824,-0.1947
5.73,-67.97,-7.77,-21.28,1.4112,-0.142,-0.1629
5.744,-69.79,-17.15,-2.94,1.5562,-0.466,-0.1346
5.762,-73.22,-26.18,15.68,1.4932,-0.6207,-0.0634
5.776,-75.04,-30.73,17.5,1.4386,-0.5055,0.0439
5.79,-77.21,-34.02,13.79,1.3498,-0.5211,0.0419
5.818,-81.2699,-40.18,-3.15,1.0413,-0.4626,0.0009
5.835,-84.7,-41.44,-18.69,0.8349,-0.3264,-0.0527
5.851,-86.38,-41.65,-37.1699,0.769,-0.1444,-0.0712
5.868,-87.15,-41.86,-53.41,0.7554,-0.0122,-0.0658
5.883,-86.73,-42.14,-60.34,0.7178,-0.0209,-0.0512
5.898,-85.05,-41.65,-55.58,0.6592,-0.0707,-0.0004
5.913,-82.53,-40.32,-41.23,0.6241,-0.1137,0.0253
5.928,-79.45,-37.73,-17.99,0.6212,-0.1273,0.0302
5.943,-75.6,-34.37,2.45,0.6426,-0.078,-0.0268
5.959,-72.38,-29.75,23.52,0.6407,-0.0234,-0.1054
5.977,-69.44,-25.83,39.2,0.6583,-0.0175,-0.1346
5.995,-65.03,-18.55,50.47,0.6993,-0.018,-0.1869
6.012,-61.81,-12.81,61.6,0.6851,-0.0273,-0.1888
6.028,-58.24,-6.51,68.95,0.6944,-0.0136,-0.1668
6.045,-54.04,-0.21,76.79,0.6944,0.0082,-0.1464
6.062,-49.35,6.09,78.82,0.7217,0.0444,-0.1337
6.08,-44.03,11.97,72.38,0.6983,0.0629,-0.1493
6.096,-39.83,17.5,52.78,0.6534,0.0995,-0.1522
6.114,-35.7,23.87,26.67,0.6422,0.1215,-0.1395
6.13,-31.64,27.51,10.71,0.7134,0.1224,-0.1127
6.145,-26.88,31.08,3.78,0.8144,0.1015,-0.1137
6.16,-22.89,33.81,1.33,0.8652,0.0893,-0.1517
6.176,-17.57,36.61,3.43,0.9008,0.1107,-0.1844
6.194,-12.04,38.71,10.43,0.9633,0.0932,-0.1927
6.207,-7.77,37.66,21.2099,1.2117,0.0009,-0.2381
6.224,-2.66,34.44,32.27,1.2331,0.0302,-0.2786
6.239,1.61,31.29,37.73,1.199,0.0048,-0.242
6.256,5.04,30.59,38.0099,1.0862,0.0156,-0.1576
6.272,7.56,32.13,30.03,1.0384,-0.0078,-0.0683
6.288,9.87,35.49,17.29,1.0057,-0.018,0.0004
6.303,11.97,39.06,5.95,1.0301,-0.0126,0.0849
6.318,13.72,41.02,-1.4,1.2239,-0.0326,0.1254
6.334,15.68,38.15,1.82,1.5254,-0.1049,-0.0092
6.349,17.15,30.87,13.86,1.5952,-0.1995,-0.1947
6.367,19.81,23.31,23.45,1.5079,-0.1942,-0.14
6.385,22.47,16.3799,24.29,1.4147,-0.1566,-0.0795
6.4,23.87,11.9,19.53,1.4034,-0.1454,-0.0678
6.415,24.92,6.72,12.81,1.421,-0.1995,-0.0736
6.43,25.48,2.24,12.39,1.4171,-0.3679,-0.1024
6.446,24.99,-3.08,15.82,1.3254,-0.5328,-0.1044
6.462,24.15,-6.02,13.23,1.1609,-0.5304,-0.0839
6.476,23.45,-6.79,2.03,1.015,-0.4665,-0.0653
6.49,22.9599,-5.88,-15.19,0.8857,-0.3703,-0.058
6.504,23.1,-4.41,-33.53,0.8091,-0.281,-0.0629
6.518,24.15,-3.85,-48.58,0.7803,-0.2098,-0.0619
6.536,26.18,-3.99,-56.7,0.7822,-0.1268,-0.0536
6.554,31.5,-6.51,-52.64,0.8481,-0.0419,-0.0644
6.571,37.52,-9.66,-44.1,0.8374,0.0073,-0.0595
6.587,42.4199,-13.23,-33.53,0.8535,0.0253,-0.0195
6.603,48.58,-17.29,-20.65,0.8813,0.02,-0.0048
6.618,54.67,-21.77,-6.79,0.9725,-0.0073,-0.0287
6.634,59.15,-27.37,11.13,1.036,-0.0658,-0.0507
6.652,63.07,-33.11,28.63,1.035,-0.1795,-0.0268
6.67,64.05,-37.38,40.04,1.015,-0.2957,-0.0004
6.685,62.93,-40.11,47.18,1.0013,-0.4157,-0.0029
6.701,59.71,-41.79,51.1699,1.0247,-0.5036,-0.0068
6.717,55.16,-42.84,50.82,0.9886,-0.5714,-0.0131
6.731,50.61,-42.63,44.73,0.935,-0.5953,-0.0331
6.749,46.62,-41.5099,27.79,0.8754,-0.5724,-0.0502
6.767,39.2,-37.8,5.25,0.792,-0.4562,-0.0761
6.783,34.86,-34.37,-10.99,0.7676,-0.4026,-0.1
6.798,32.34,-30.59,-18.55,0.7788,-0.3581,-0.1278
6.814,30.03,-28.28,-20.79,0.8032,-0.3128,-0.1542
6.83,28.56,-26.04,-19.32,0.8354,-0.282,-0.1917
6.844,27.65,-23.73,-18.1299,0.8095,-0.2464,-0.2039
6.861,26.81,-20.23,-17.5,0.77,-0.2318,-0.2122
6.879,26.25,-17.01,-16.8,0.7524,-0.2054,-0.2318
6.897,25.2,-13.79,-15.33,0.8052,-0.2327,-0.2693
6.915,23.94,-11.41,-12.88,0.8203,-0.2357,-0.282
6.928,21.6299,-9.17,-10.78,0.85,-0.2527,-0.2801
6.942,19.4599,-7.14,-8.96,0.8793,-0.281,-0.2825
6.958,17.29,-5.39,-6.44,0.9003,-0.3386,-0.2918
6.976,13.44,-3.85,-3.64,0.892,-0.3889,-0.3059
6.992,7.98,-1.54,0.21,0.9135,-0.4572,-0.3201
7.006,4.48,-0.63,5.18,0.9657,-0.5177,-0.3147
7.023,-0.98,-0.07,10.5,1.0096,-0.5704,-0.3289
7.051,-12.25,0.7,20.09,1.0604,-0.6153,-0.3362
7.068,-18.27,1.05,23.3799,1.0477,-0.5924,-0.322
7.084,-23.73,1.12,28.28,1.054,-0.6104,-0.3342
7.102,-28.28,0.28,39.55,1.0784,-0.6392,-0.3782
7.12,-34.79,-2.03,50.4,1.098,-0.6397,-0.3845
7.137,-39.97,-3.71,55.65,1.0648,-0.6202,-0.3474
7.154,-45.5,-4.34,55.23,0.9921,-0.5807,-0.3006
7.171,-49.91,-4.9,49.91,0.915,-0.5206,-0.2654
7.188,-53.48,-4.69,36.82,0.8696,-0.4426,-0.2352
7.204,-56.49,-3.78,22.4,0.7788,-0.3679,-0.2196
7.219,-58.38,-2.45,1.96,0.6978,-0.2703,-0.2117
7.237,-59.15,-0.98,-20.58,0.6588,-0.1981,-0.2015
7.254,-58.59,0.0,-31.01,0.6792,-0.161,-0.2049
7.271,-56.91,0.21,-29.12,0.7642,-0.1581,-0.2117
7.289,-53.83,-0.56,-9.8,0.8164,-0.2142,-0.2039
7.305,-50.47,-0.91,13.72,0.8715,-0.2737,-0.2039
7.323,-45.78,-0.21,44.87,0.8359,-0.342,-0.2278
7.338,-42.77,1.75,59.29,0.8012,-0.4148,-0.2298
7.353,-39.97,4.83,59.22,0.7739,-0.4797,-0.1737
7.368,-36.82,8.05,49.63,0.7534,-0.5075,-0.1039
7.384,-34.5099,11.9,25.62,0.731,-0.4494,-0.0751
7.399,-27.79,17.43,5.6,0.7598,0.1464,-0.2703
7.417,-27.3,13.3,-19.53,1.0287,-0.2083,-0.362
7.435,-24.99,8.61,-19.4599,1.1311,-0.222,-0.3152
7.451,-21.6299,2.8,-7.42,1.1404,-0.121,-0.241
7.469,-18.48,-1.47,4.55,1.0604,-0.0678,-0.2113
7.487,-14.98,-5.46,12.67,0.9618,-0.0605,-0.1908
7.503,-13.37,-6.3,14.42,0.8857,-0.0702,-0.1898
7.52,-12.74,-7.28,13.3,0.8803,-0.0873,-0.201
7.538,-12.95,-7.77,12.53,0.9106,-0.1449,-0.2278
7.555,-13.51,-7.84,13.37,0.9306,-0.1859,-0.242
7.571,-14.21,-6.93,15.4,0.9203,-0.2176,-0.1937
7.587,-14.42,-4.76,17.22,0.8808,-0.2508,-0.1361
7.605,-14.28,-1.33,18.2,0.8559,-0.2615,-0.1146
7.623,-13.51,2.59,17.15,0.8725,-0.2596,-0.1078
7.64,-12.53,5.53,16.3799,0.8993,-0.2615,-0.0941
7.658,-11.2,7.49,15.54,0.9457,-0.2659,-0.0941
7.676,-8.96,9.03,13.58,0.9598,-0.2498,-0.0932
7.693,-5.67,9.38,9.24,1.0184,-0.2386,-0.122
7.71,-3.5,8.89,2.52,1.0316,-0.2215,-0.1498
7.728,-0.49,6.72,-7.28,1.0648,-0.2264,-0.2303
7.745,0.14,4.55,-17.85,1.1184,-0.3098,-0.3079
7.763,2.8,0.63,-24.01,1.2204,-0.2469,-0.2235
7.781,6.23,-3.43,-23.59,1.2605,-0.3079,-0.2874
7.797,10.85,-7.07,-9.59,1.3278,-0.4338,-0.3059
7.813,15.89,-11.62,8.12,1.4025,-0.5109,-0.3352
7.828,19.81,-15.68,19.81,1.3581,-0.5612,-0.3328
7.845,23.31,-17.29,19.8799,1.2058,-0.5685,-0.3059
7.862,24.92,-16.3799,4.83,1.0579,-0.5465,-0.2581
7.878,25.62,-13.72,-18.1299,0.9096,-0.4884,-0.243
7.891,26.39,-10.85,-38.78,0.8091,-0.3996,-0.2464
7.906,27.86,-7.98,-56.98,0.7622,-0.2918,-0.2347
7.92,30.59,-5.81,-69.86,0.7378,-0.1786,-0.2215
7.948,36.96,-5.18,-74.13,0.7876,-0.0419,-0.2093
7.965,42.35,-7.35,-61.95,0.8427,-0.0561,-0.2259
7.979,46.34,-10.22,-45.08,0.8852,-0.1083,-0.2644
7.996,50.12,-14.49,-21.84,0.9257,-0.1834,-0.2893
8.012,52.36,-18.83,-0.42,0.9276,-0.2781,-0.2859
8.028,52.57,-21.84,14.14,0.8906,-0.3811,-0.2771
8.043,51.24,-23.17,21.42,0.8413,-0.4567,-0.2503
8.058,49.49,-23.17,24.43,0.8037,-0.4923,-0.2196
8.074,46.97,-22.47,22.61,0.8008,-0.4982,-0.1912
8.092,44.52,-21.07,19.95,0.7851,-0.5299,-0.1781
8.11,40.39,-19.74,16.8,0.8022,-0.5455,-0.2015
8.128,35.98,-18.76,11.83,0.7812,-0.5797,-0.2352
8.146,30.52,-17.08,4.06,0.7207,-0.5514,-0.2078
8.162,27.09,-14.91,-4.69,0.6895,-0.4694,-0.1712
8.178,23.59,-12.88,-10.08,0.688,-0.4562,-0.1722
8.194,20.58,-10.57,-10.22,0.6963,-0.4382,-0.1922
8.212,17.78,-8.68,-7.42,0.7193,-0.383,-0.2147
8.23,15.47,-7.28,-2.38,0.7539,-0.3699,-0.2547
8.248,12.53,-5.53,1.61,0.7627,-0.3664,-0.2518
8.266,9.38,-3.29,3.78,0.7778,-0.3664,-0.242
8.283,6.72,-1.61,6.09,0.8266,-0.365,-0.2605
8.299,4.13,-0.56,9.38,0.8964,-0.3801,-0.3025
8.317,2.24,-0.07,14.42,0.9462,-0.406,-0.3416
8.335,-2.73,0.63,20.79,0.9481,-0.526,-0.3977
8.351,-7.35,2.52,25.69,0.9062,-0.5895,-0.3957
8.367,-12.46,5.7399,30.59,0.8222,-0.649,-0.3742
8.385,-16.52,10.5,34.3,0.7661,-0.6749,-0.366
8.403,-23.66,15.05,36.89,0.7251,-0.5494,-0.3367
8.419,-26.67,17.92,40.6,0.7681,-0.4499,-0.3303
8.437,-27.79,19.04,49.07,0.8281,-0.3742,-0.3435
8.455,-27.44,0.14,64.89,0.9272,-0.3079,-0.3323
8.47,-25.97,14.98,80.92,1.0926,-0.3577,-0.3323
8.485,-24.78,10.92,101.22,1.2156,-0.4909,-0.3645
8.501,-24.57,5.81,125.79,1.3019,-0.7119,-0.3864
8.517,-26.32,2.24,141.05,1.2546,-0.8915,-0.3459
8.532,-30.17,2.17,144.34,1.1721,-1.0057,-0.283
8.548,-33.88,3.43,134.75,1.1165,-0.9428,-0.1644
8.566,-35.77,8.4,108.71,0.9769,-0.7271,-0.0814
8.583,-35.56,13.37,79.5199,0.7817,-0.5641,-0.0927
8.599,-32.55,19.4599,52.71,0.7202,-0.4152,-0.1078
8.617,-28.77,24.78,20.72,0.691,-0.3313,-0.1512
8.635,-20.86,30.59,-7.84,0.6373,-0.2113,-0.1873
8.653,-14.84,35.07,-35.84,0.6031,-0.2122,-0.2327
8.671,-7.98,37.52,-50.75,0.5919,-0.3054,-0.281
8.689,-1.54,39.97,-58.38,0.5714,-0.3498,-0.2522
8.707,3.57,42.0,-58.73,0.5319,-0.4001,-0.1859
8.724,8.75,43.47,-52.71,0.526,-0.4152,-0.1273
8.741,14.63,44.03,-41.37,0.5392,-0.446,-0.0683
8.755,19.32,43.68,-27.44,0.5763,-0.4616,-0.0312
8.77,24.22,42.56,-6.44,0.6246,-0.4709,-0.0024
8.785,29.26,40.04,12.74,0.6934,-0.4845,0.0102
8.801,35.0,37.38,31.08,0.7271,-0.4694,0.0117
8.819,40.6,33.32,39.83,0.7549,-0.4514,-0.0161
8.836,44.66,29.47,37.03,0.7959,-0.3689,-0.0502
8.853,48.09,24.5,27.86,0.8305,-0.3142,-0.1024
8.869,51.38,19.4599,17.99,0.8686,-0.2693,-0.1224
8.886,55.09,14.07,10.43,0.8886,-0.203,-0.0771
8.903,60.83,9.24,8.54,0.8354,-0.1063,0.0595
8.919,65.66,4.48,16.31,0.8676,-0.1859,0.1049
8.935,71.68,0.77,37.24,0.8252,-0.3108,0.0824
8.951,76.0899,-3.71,64.96,0.8208,-0.4294,0.0736
8.969,80.92,-3.08,82.81,0.6285,-0.3191,0.2576
8.986,83.0899,-0.56,82.04,0.5309,-0.4104,0.3157
9.004,82.04,1.96,71.19,0.7041,-0.5631,0.2078
9.022,78.4,3.15,43.61,0.8081,-0.913,-0.0385
9.039,70.21,3.29,12.39,0.8149,-1.0467,-0.0302
9.055,66.22,4.2,-13.16,0.9325,-1.0511,0.284
9.07,65.66,2.8699,-22.68,1.2156,-0.9437,0.4958
9.085,67.41,-2.59,-16.17,1.4498,-0.9047,0.4699
9.101,69.16,-11.76,-2.8699,1.4137,-0.9711,0.1586
9.117,69.23,-19.81,5.18,1.2975,-0.9418,-0.0165
9.131,68.6,-26.74,3.08,1.28,-0.9081,-0.0278
9.149,65.5899,-34.79,-3.08,1.2385,-1.0282,0.0146
9.167,60.76,-39.41,-7.91,1.055,-1.1321,0.0936
9.183,56.63,-42.63,-10.5,0.9389,-1.1502,0.1464
9.199,53.27,-44.8,-12.25,0.8554,-1.1292,0.1883
9.217,50.2599,-46.27,-12.6,0.7764,-1.0965,0.2034
9.235,44.73,-47.18,-15.75,0.7198,-1.0086,0.0619
9.252,40.53,-47.74,-26.32,0.6456,-0.8764,0.0165
9.266,37.1699,-47.46,-38.5,0.5836,-0.7642,0.0097
9.284,34.16,-46.9,-54.04,0.5421,-0.6963,0.0156
9.302,31.08,-45.0099,-67.06,0.5084,-0.5948,0.0322
9.315,30.31,-44.31,-72.17,0.5753,-0.5616,0.0468
9.329,29.54,-44.1,-74.69,0.6983,-0.6265,0.02
9.346,28.63,-44.1699,-74.69,0.8252,-0.7754,0.0019
9.36,25.9,-44.52,-69.86,0.9179,-1.0208,0.0024
9.374,23.3799,-44.1,-64.54,0.9354,-1.094,0.0775
9.392,21.49,-42.56,-63.21,0.8637,-1.0413,0.1522
9.406,19.81,-38.43,-69.0199,0.7793,-0.8271,0.1888
9.42,18.97,-34.65,-78.54,0.7505,-0.7222,0.1385
9.434,19.04,-31.01,-84.21,0.7471,-0.6412,0.0736
9.453,19.81,-27.65,-83.37,0.77,-0.5358,0.0473
9.466,21.28,-24.57,-76.0899,0.7656,-0.3816,0.0566
9.48,22.54,-23.52,-64.96,0.7564,-0.3152,0.0268
9.494,24.36,-22.68,-50.47,0.7661,-0.2449,-0.1239
9.524,26.46,-21.7,-22.19,0.6807,-0.1864,-0.0458
9.541,25.83,-20.16,-14.07,0.6378,-0.2308,-0.0419
9.558,23.66,-17.78,-13.79,0.5816,-0.2986,-0.0165
9.573,20.44,-15.05,-17.08,0.5734,-0.3455,-0.0039
9.589,17.15,-12.88,-21.42,0.6231,-0.3796,0.0141
9.604,12.6,-11.62,-24.22,0.6997,-0.403,-0.1249
9.62,7.56,-12.53,-25.62,0.8086,-0.4382,-0.0517
9.638,2.1,-15.4,-24.64,0.9091,-0.5055,-0.0814
9.651,-2.38,-16.8,-22.54,0.914,-0.5202,-0.081
9.667,-6.86,-18.76,-20.51,0.9267,-0.5202,-0.0624
9.685,-12.46,-21.28,-15.75,0.9677,-0.608,-0.0517
9.7,-16.45,-23.31,-9.17,1.0057,-0.6475,-0.0649
9.714,-20.72,-25.41,-1.89,1.036,-0.648,-0.0619
9.728,-24.5,-27.72,4.9699,1.036,-0.67,-0.08
9.744,-28.07,-29.75,9.31,1.0262,-0.6968,-0.119
9.773,-39.34,-29.47,1.96,0.9252,-0.5982,-0.0214
9.79,-44.66,-28.56,-5.46,0.8847,-0.5387,0.0165
9.805,-48.86,-27.44,-6.37,0.8998,-0.5636,-0.0219
9.82,-53.48,-28.07,-1.4,0.9877,-0.5812,-0.0644
9.835,-57.47,-29.05,8.33,1.0096,-0.5709,-0.1132
9.85,-61.04,-31.08,19.4599,1.1175,-0.5597,-0.0966
9.865,-64.47,-33.39,33.95,1.1575,-0.5699,-0.1024
9.881,-67.62,-36.05,55.16,1.2131,-0.6329,-0.1351
9.895,-70.7,-38.64,71.68,1.2775,-0.6958,-0.1586
9.911,-74.41,-39.97,83.37,1.26,-0.73,-0.141
9.929,-80.15,-38.64,84.56,1.1946,-0.7915,-0.0868
9.944,-84.91,-35.14,75.67,1.0277,-0.8608,-0.0639
9.959,-90.58,-30.8,60.06,0.8769,-0.8413,-0.0356
9.976,-94.92,-23.94,23.66,0.6924,-0.6744,-0.0146
9.993,-96.95,-16.8,-14.49,0.5675,-0.4743,-0.0092
10.008,-96.88,-11.06,-42.91,0.5333,-0.343,-0.0175
10.024,-95.2,-7.28,-67.13,0.5612,-0.244,-0.0717
10.039,-91.8399,-5.39,-79.1,0.5963,-0.141,-0.1263
10.057,-86.1,-4.34,-82.32,0.6344,-0.0741,-0.0888
10.075,-80.85,-4.2,-73.5,0.7339,-0.0082,-0.1151
10.092,-74.76,-3.85,-57.26,0.8042,-0.0034,-0.1107
10.107,-67.69,-3.5,-38.78,0.851,0.0785,-0.1424
10.125,-59.92,-3.01,-8.96,0.8793,0.0048,-0.0756
10.141,-51.87,-2.17,21.07,0.8774,-0.0751,-0.0707
10.159,-43.4,0.49,48.5099,0.871,-0.1244,-0.0375
10.175,-37.03,4.27,65.73,0.7871,-0.1586,-0.0268
10.189,-32.48,8.26,69.3,0.7749,-0.1586,-0.0614
10.206,-28.49,12.53,59.64,0.8027,-0.1912,-0.18
10.224,-25.69,17.43,41.93,0.8432,-0.2425,-0.2596
10.241,-23.8,21.91,20.44,0.769,-0.2605,-0.1971
10.257,-21.98,26.81,-0.49,0.6895,-0.181,-0.1625
10.273,-19.81,31.29,-19.39,0.6875,-0.0473,-0.1708
10.29,-17.29,34.3,-33.04,0.7978,0.0131,-0.2322
10.307,-14.35,34.3,-35.07,0.9691,-0.0048,-0.2464
10.325,-10.22,31.29,-19.25,1.0765,-0.0097,-0.2264
10.338,-5.88,27.79,-0.7,1.0818,-0.0151,-0.2274
10.353,-0.98,24.43,15.82,1.0614,-0.0004,-0.2361
10.369,5.04,20.86,26.81,1.0477,0.0078,-0.2654
10.384,10.78,17.92,27.3,1.0394,0.0009,-0.2815
10.398,15.26,16.03,22.26,1.0067,0.0126,-0.2698
10.411,19.32,14.63,14.35,1.0125,0.0185,-0.2332
10.425,23.94,12.39,7.07,1.0506,-0.0224,-0.2054
10.442,28.98,8.82,2.59,1.0906,-0.0941,-0.2103
10.472,35.28,2.17,-4.34,1.2365,-0.2723,-0.3089
10.49,35.56,-2.66,-14.42,1.2141,-0.3181,-0.2142
10.504,36.47,-5.32,-20.93,1.1746,-0.3201,-0.1464
10.521,36.96,-8.47,-26.32,1.2292,-0.4504,-0.1566
10.539,36.89,-13.16,-30.03,1.2766,-0.5089,-0.18
10.557,36.96,-17.22,-34.02,1.2029,-0.5338,-0.1561
10.575,36.89,-21.35,-37.1,1.1511,-0.5392,-0.1307
10.592,37.8,-24.92,-39.34,1.1155,-0.506,-0.1034
10.61,38.57,-28.98,-40.39,1.1907,-0.4377,-0.1493
10.628,39.41,-37.66,-37.94,1.3102,-0.386,-0.2039
10.645,39.83,-44.1699,-36.54,1.2785,-0.3733,-0.1776
10.661,39.41,-48.44,-42.91,1.0521,-0.3274,-0.1327
10.675,38.99,-50.68,-54.46,0.8705,-0.2659,-0.1141
10.691,38.36,-51.87,-69.79,0.7949,-0.223,-0.1137
10.705,37.66,-53.48,-79.45,0.7983,-0.202,-0.122
10.721,36.75,-56.35,-81.83,0.8657,-0.1981,-0.1571
10.735,44.8,-38.43,27.02,-0.2327,-0.1942,-0.3708
10.751,50.2599,-25.55,76.0899,0.4923,0.0814,-0.1244
10.765,51.03,-17.43,46.27,0.4182,0.0673,-0.1903
10.78,50.68,-15.26,23.66,0.6514,-0.2269,-0.2078
10.798,50.05,-16.1,20.86,1.0623,-0.5777,-0.2713
10.816,47.6699,-22.05,22.75,1.1687,-0.7573,-0.2654
10.834,43.82,-27.79,12.6,1.1067,-0.7095,-0.2522
10.852,39.83,-33.53,-13.3,1.179,-0.6397,-0.2347
10.865,35.21,-39.13,-10.78,0.8091,-0.5802,-0.3152
10.879,38.22,-21.49,26.25,0.5875,-0.5036,-0.1629
10.894,34.5099,-20.65,9.52,0.7485,-0.4201,-0.0985
10.923,13.58,-8.12,9.17,0.5494,-0.6812,-0.465
10.938,-3.43,-3.43,12.53,0.6578,-0.6548,-0.4557
10.953,-17.64,-5.25,12.53,0.8408,-0.6914,-0.447
10.969,-27.23,-11.62,11.27,0.9359,-0.6436,-0.4679
10.986,-34.58,-18.2,12.74,0.8725,-0.3542,-0.3601
10.999,-32.69,-19.74,24.29,0.6261,-0.0766,-0.364
11.015,-26.74,-19.6,35.7,0.6919,0.0527,-0.3093
11.031,-21.35,-13.93,45.99,0.5782,0.1546,-0.3538
11.046,-19.32,-12.32,47.46,0.5455,0.098,-0.3821
11.076,-12.04,-4.34,77.49,0.3298,-0.0829,-0.2205
11.094,-9.17,6.02,90.72,0.2181,-0.1239,-0.1844
11.112,-4.48,18.97,97.44,0.1786,-0.1176,-0.3625
11.13,1.05,28.63,96.6,0.3211,-0.2303,-0.4094
11.146,2.52,38.0099,96.53,0.2937,-0.4123,-0.3825
11.162,3.99,47.81,99.19,0.2064,-0.2518,-0.3235
11.178,11.76,56.21,110.11,0.1922,0.0082,-0.2049
11.194,26.25,62.72,121.1,0.2659,0.0014,-0.3162
11.209,38.5,66.5,131.11,0.3342,-0.2898,-0.3459
11.225,52.0099,74.2,145.32,0.222,-0.5407,0.037
11.243,72.03,87.36,156.87,0.0697,-0.6836,0.3045
11.257,81.9,101.36,146.7899,0.2049,-0.7656,0.3733
11.273,86.66,116.48,102.76,0.5465,-0.73,0.5094
11.291,85.05,130.83,23.66,0.6143,-0.6753,0.7851
11.309,84.35,145.74,-40.04,0.5114,-0.2859,0.9223
11.327,91.98,159.53,-73.71,0.6978,-0.1639,0.9452
11.344,98.0,164.01,-93.38,0.792,-0.1615,1.0301
11.361,102.48,166.95,-108.71,0.8359,-0.2196,1.095
11.379,104.58,168.35,-123.2,0.9555,-0.2791,1.055
11.395,102.83,168.07,-138.46,1.0804,-0.3772,1.0155
11.413,100.45,165.97,-146.65,1.1604,-0.4548,1.0121
11.431,95.76,157.08,-135.45,1.298,-0.5294,0.9501
11.449,94.57,143.64,-113.19,1.4269,-0.5826,0.8779
11.464,93.87,132.44,-91.8399,1.4,-0.6417,0.8583
11.482,92.82,118.02,-64.82,1.3942,-0.6773,0.8296
11.497,91.7,106.96,-48.02,1.403,-0.7344,0.791
11.515,87.78,90.86,-27.86,1.4439,-0.8203,0.7232
11.531,84.21,75.11,-12.18,1.5552,-0.8754,0.6924
11.547,78.68,61.04,0.28,1.606,-0.9159,0.6607
11.562,71.68,44.52,10.01,1.6343,-0.9784,0.6631
11.579,63.91,25.62,21.98,1.7436,-0.9725,0.5992
11.596,56.91,3.85,38.15,1.7982,-0.9442,0.5382
11.614,49.98,-21.07,53.34,1.7724,-0.9311,0.5421
11.631,42.21,-42.49,67.2699,1.7538,-0.8715,0.5084
11.645,36.4,-59.5,77.35,1.6704,-0.8281,0.5089
11.663,28.49,-79.17,83.93,1.5689,-0.791,0.5148
11.678,23.66,-91.8399,88.2699,1.4737,-0.7339,0.5045
11.696,14.98,-104.65,91.35,1.2839,-0.7041,0.528
11.712,8.68,-112.49,92.12,1.176,-0.7002,0.5616
11.728,2.38,-117.88,93.17,1.0794,-0.6949,0.5899
11.746,-7.49,-120.47,94.22,0.9681,-0.6768,0.607
11.764,-15.75,-121.1,94.15,0.8671,-0.5816,0.6158
11.779,-21.35,-121.31,95.83,0.831,-0.4855,0.6314
11.796,-22.89,-121.66,101.92,0.8174,-0.3947,0.6558
11.814,-20.44,-119.77,109.13,0.7676,-0.3376,0.67
11.831,-18.34,-113.19,107.1,0.6056,-0.3089,0.6822
11.849,-16.1,-103.39,91.63,0.5021,-0.3132,0.6812
11.867,-12.74,-82.53,61.74,0.4523,-0.3225,0.5504
11.884,-9.7299,-67.69,29.12,0.445,-0.3391,0.4587
11.899,-6.58,-55.79,1.26,0.4523,-0.3689,0.4357
11.916,-3.5,-41.44,-32.2,0.4533,-0.3694,0.3767
11.934,1.33,-30.87,-52.36,0.466,-0.3581,0.3679
11.951,6.51,-22.12,-62.23,0.4557,-0.343,0.362
11.967,12.53,-14.63,-63.28,0.4675,-0.3323,0.3796
11.985,38.08,3.92,-65.5199,0.0488,1.4083,0.6968
12.003,67.69,20.37,-61.11,-0.0043,-0.139,0.6602
12.02,70.63,38.9199,-66.71,-0.16,-0.4782,0.5919
12.038,72.1,55.51,-70.42,0.0468,-0.5563,0.4777
12.054,74.06,66.78,-70.56,0.5133,-0.467,0.4235
12.072,77.14,67.69,-71.4,1.0326,-0.3645,0.424
12.09,76.93,66.01,-78.05,1.0706,-0.4782,0.4621
12.108,70.07,64.19,-81.2,1.097,-0.6134,0.5509
12.124,63.7,59.29,-79.5899,1.2561,-0.6695,0.4884
12.142,56.42,49.98,-75.53,1.319,-0.6914,0.3933
12.157,48.5099,42.14,-69.79,1.3254,-0.7495,0.4026
12.174,39.48,32.69,-61.39,1.2985,-0.8032,0.3786
12.19,29.68,22.82,-50.05,1.2849,-0.8364,0.3874
12.205,21.98,14.07,-32.7599,1.2834,-0.8252,0.3967
12.221,14.63,3.5,-11.55,1.2853,-0.8076,0.447
12.239,8.61,-9.38,27.58,1.3205,-0.7671,0.4699
12.257,6.72,-23.31,73.92,1.3903,-0.6265,0.4577
12.274,26.46,-26.32,109.27,1.0326,0.9184,0.5895
12.289,29.12,-34.3,105.42,1.3322,0.0,0.4148
12.306,31.57,-39.69,88.2,1.3385,-0.1956,0.4426
12.324,33.6699,-41.23,61.88,1.2239,-0.2708,0.4865
12.342,32.13,-38.0099,17.01,1.0526,-0.4914,0.4592
12.36,28.49,-13.16,-25.55,-0.0214,-0.3904,0.6407
12.378,33.25,20.79,-61.46,-0.6812,-0.1,0.5685
12.395,33.18,25.48,-91.35,0.9384,0.1498,0.6241
12.413,32.69,24.22,-98.56,0.9028,-0.1302,0.6373
12.428,32.34,16.31,-86.5199,1.1546,-0.2493,0.5753
12.445,30.87,0.35,-61.04,1.3502,-0.3479,0.5216
12.461,27.65,-17.78,-39.55,1.4171,-0.403,0.5163
12.477,23.66,-36.05,-15.05,1.3825,-0.3742,0.5387
12.493,20.79,-52.22,5.39,1.2575,-0.2825,0.5812
12.51,19.95,-63.91,22.12,1.0584,-0.1986,0.5724
12.527,20.23,-68.39,35.56,0.7207,-0.2,0.5353
12.545,18.97,-64.68,42.56,0.5504,-0.2025,0.5626
12.559,17.85,-61.53,43.2599,0.6656,-0.1385,0.5621
12.577,16.59,-56.63,45.29,0.6368,-0.1493,0.5094
12.595,14.98,-52.99,50.47,0.4909,-0.281,0.403
12.608,9.45,-47.32,54.53,0.5616,-0.588,0.2235
12.622,1.89,-47.25,58.45,0.8491,-0.7598,0.1371
12.637,-4.9699,-48.72,61.18,1.0467,-0.6939,0.3308
12.651,-14.84,-55.16,62.3,1.4923,-0.6856,0.3782
12.681,-27.16,-63.14,65.73,0.9467,-0.2044,0.404
12.698,-31.78,-57.61,66.64,0.6788,-0.4762,0.3806
12.715,-42.91,-52.15,62.23,0.7237,-0.8042,0.3552
12.73,-48.93,-41.93,62.58,0.6031,-0.7617,0.4055
12.745,-55.51,-29.47,60.76,0.4982,-0.7622,0.4352
12.76,-61.18,-17.85,61.88,0.5987,-0.8969,0.4528
12.775,-66.5,-7.07,66.29,0.7593,-0.9023,0.4982
12.793,-68.39,1.82,79.03,0.7554,-0.7768,0.5333
12.811,-63.07,20.02,87.08,0.7905,-0.4518,0.4933
12.828,-51.31,32.2,83.44,0.911,-0.0761,0.3269
12.843,-19.67,42.49,67.13,0.994,0.1761,0.2137
12.858,-18.83,55.93,63.56,0.9545,0.2435,-0.0078
12.874,-4.9,63.77,24.43,0.9467,0.1468,-0.1137
12.89,-4.41,78.47,6.65,0.6773,-0.0419,-0.0883
12.905,-11.97,88.3399,-34.16,0.5382,-0.385,-0.0488
12.92,-19.4599,102.2,-79.17,0.3694,-0.5734,0.2835
12.934,-44.38,104.86,-127.19,0.4816,-0.7783,0.6178
12.952,-65.38,111.16,-167.3,0.4914,-0.8349,0.3318
12.965,-91.28,99.61,-181.3,0.955,-0.8032,0.3699
12.979,-107.73,92.47,-174.16,0.6275,-0.7715,0.4191
12.994,-115.01,87.15,-143.4299,0.9106,-0.9013,0.3513
13.011,-133.35,66.22,-98.14,1.117,-1.0511,0.4684
13.025,-150.78,48.79,-48.5099,1.301,-1.014,0.5304
13.053,-180.39,7.14,-58.94,1.3122,-0.5529,0.6617
13.069,-202.02,-5.6,-169.47,0.8988,-0.3333,0.67
13.087,-219.17,-21.0,-274.05,0.7725,-0.3684,0.5807
13.105,-221.97,-34.79,-248.15,0.6973,-0.3391,0.4582
13.121,-204.6799,-39.27,-155.26,0.4914,-0.3376,0.322
13.135,-182.14,-33.25,-28.98,0.4026,-0.3186,0.1776
13.151,-157.15,-12.88,103.74,0.2669,-0.2039,0.1078
13.165,-134.96,9.8,159.74,0.3396,-0.081,0.1429
13.181,-115.92,28.98,145.95,0.5607,-0.0531,0.1127
13.195,-103.67,42.91,94.99,0.6641,0.0161,0.1307
13.211,-91.49,52.15,47.04,0.8061,-0.0556,0.1854
13.227,-78.68,52.71,29.26,0.9701,-0.1659,0.2186
13.243,-66.43,48.09,49.56,1.0018,-0.2498,0.2884
13.26,-52.22,39.34,79.94,1.157,-0.324,0.3489
13.277,-43.96,26.6,87.22,1.2668,-0.2884,0.427
13.295,-38.64,9.03,63.35,1.3283,-0.2542,0.4909
13.313,-35.21,-12.53,27.3,1.4464,-0.2122,0.5285
13.33,-30.87,-30.66,1.4,1.2975,-0.1956,0.5777
13.346,-24.43,-45.5,-6.37,1.1511,-0.261,0.6021
13.361,-17.29,-56.07,1.54,1.0623,-0.3747,0.6007
13.377,-11.76,-67.2,13.02,1.0184,-0.4235,0.5724
13.392,-6.02,-75.39,14.35,0.9989,-0.4294,0.5397
13.41,-1.96,-87.64,-1.4,1.1375,-0.4914,0.5006
13.426,-1.19,-99.61,-37.38,1.1258,-0.5255,0.4904
13.443,-1.33,-109.48,-79.94,0.9818,-0.5524,0.4831
13.458,-0.35,-117.11,-98.98,0.9369,-0.647,0.5158
13.474,0.07,-129.22,-93.94,1.1082,-0.8788,0.5753
13.492,-1.33,-149.52,-79.31,1.2483,-1.0648,0.6568
13.505,-3.85,-157.92,-67.2699,1.2814,-1.1267,0.7002
13.519,-3.29,-164.92,-52.71,0.9159,-0.9145,0.5895
13.534,5.7399,-164.78,-7.28,0.7129,-0.8061,0.4933
13.551,19.18,-156.31,52.22,0.6017,-0.6466,0.4333
13.567,35.63,-156.31,103.11,0.671,-0.6441,0.2845
13.582,59.92,-142.66,112.14,0.4782,-0.4021,0.2005
13.598,84.14,-121.87,111.02,0.2864,-0.3245,0.1385
13.612,112.84,-104.0899,100.94,0.2874,-0.3655,0.1151
13.628,138.0399,-88.41,86.45,0.3381,-0.485,0.1249
13.642,156.17,-78.47,77.0,0.4021,-0.5812,0.14
13.661,172.34,-75.81,59.85,0.6026,-0.6578,0.1625
13.679,188.09,-76.0899,31.43,0.6802,-0.7715,0.2235
13.697,194.0399,-77.28,3.08,0.7485,-0.8608,0.2337
13.713,195.09,-80.29,-26.25,0.7871,-0.955,0.2493
13.729,194.0399,-82.46,-55.51,0.7617,-1.0125,0.2791
13.747,191.73,-80.92,-85.47,0.6773,-1.0247,0.301
13.765,185.15,-78.61,-112.14,0.4826,-1.1409,0.2981
13.778,183.12,-66.43,-124.88,0.5851,-1.1106,0.2884
13.792,180.11,-62.79,-133.07,0.4714,-1.076,0.2488
13.806,175.14,-55.51,-135.31,0.5133,-1.0989,0.2571
13.82,171.22,-47.74,-133.98,0.4611,-1.1297,0.2903
13.837,163.31,-38.57,-130.97,0.4987,-1.137,0.2854
13.854,149.03,-29.68,-140.7,0.3035,-1.3234,0.2459
13.868,130.69,-21.2099,-154.49,0.586,-1.8143,-0.1029
13.883,112.07,-17.08,-157.85,0.9481,-1.7402,-0.2288
13.898,106.12,-21.35,-139.58,0.9574,-0.9467,-0.3918
13.916,119.14,-14.77,-76.3,0.6627,-0.5294,-0.3864
13.932,127.96,-8.47,-18.69,0.4699,-0.7607,-0.2147
13.948,133.42,-0.91,19.04,0.4113,-0.8027,-0.1078
13.963,135.59,7.91,32.2,0.3938,-0.7495,-0.1317
13.991,137.06,20.44,23.45,0.5602,-0.6832,-0.0585
14.007,131.95,24.85,1.68,0.5973,-0.607,-0.1278
14.022,124.25,25.41,-19.8799,0.6588,-0.8066,-0.0922
14.04,114.52,26.74,-35.4199,0.6675,-0.7969,-0.1185
14.058,105.21,24.08,-43.68,0.8832,-0.8344,-0.1937
14.074,93.38,15.61,-43.61,1.0862,-0.9096,-0.2088
14.089,83.93,5.04,-32.48,1.0828,-0.8725,-0.1263
14.106,72.03,-5.25,-12.67,1.0287,-0.9081,-0.1044
14.122,64.61,-13.09,13.65,0.9906,-0.914,-0.1249
14.14,53.97,-23.94,41.65,0.976,-0.9701,-0.1015
14.158,38.36,-33.32,73.85,0.9486,-0.9516,0.0078
14.174,31.36,-39.48,103.39,0.9291,-0.8008,0.0107
14.191,28.7,-42.7,132.37,0.8637,-0.5699,-0.0805
14.208,29.4,-43.75,150.92,0.8315,-0.4962,0.0092
14.226,32.48,-43.19,154.91,0.8183,-0.3538,-0.0707
14.242,33.32,-44.38,143.64,0.9594,-0.4299,-0.0292
14.257,32.69,-48.37,126.98,1.1009,-0.3742,0.0283
14.275,31.64,-54.32,98.49,1.0252,-0.365,0.1112
14.29,29.47,-56.98,74.69,0.9272,-0.3518,0.1644
14.306,26.81,-58.45,50.54,0.8364,-0.4123,0.1468
14.322,24.15,-60.34,37.31,0.891,-0.5138,0.1029
14.338,20.51,-64.4,36.33,0.9667,-0.5729,0.0893
14.355,17.85,-68.6,41.37,0.8744,-0.5841,0.0624
14.37,15.4,-70.49,46.83,0.8203,-0.5987,0.0522
14.387,13.3,-70.21,56.28,0.71,-0.6373,0.0248
14.401,12.11,-67.3399,66.78,0.6163,-0.6553,0.0165
14.418,10.64,-61.32,80.57,0.5919,-0.6958,0.02
14.434,8.61,-55.44,91.49,0.586,-0.6934,0.0717
14.45,7.0,-47.32,94.78,0.5519,-0.6534,0.0868
14.466,4.9699,-38.57,91.8399,0.6041,-0.688,0.0644
14.48,2.8,-32.13,85.75,0.6714,-0.6846,0.0653
14.494,0.77,-26.39,77.91,0.7193,-0.7051,0.081
14.512,-1.47,-22.12,64.89,0.7578,-0.7134,0.1102
14.526,-5.88,-17.7099,52.85,0.7378,-0.729,0.1527
14.54,-10.08,-14.28,40.11,0.7036,-0.7564,0.1903
14.554,-15.26,-10.92,29.61,0.6973,-0.7881,0.2235
14.57,-20.65,-9.59,23.45,0.7129,-0.8203,0.2493
14.597,-30.87,-11.41,22.12,0.7725,-0.8256,0.2908
14.613,-34.93,-14.35,25.55,0.79,-0.8027,0.3176
14.629,-37.1,-18.97,29.33,0.8276,-0.7837,0.3274
14.647,-37.1699,-25.06,30.66,0.8091,-0.7271,0.3157
14.665,-33.46,-29.96,26.46,0.7573,-0.668,0.2776
14.682,-27.51,-32.9,20.16,0.6875,-0.6436,0.2376
14.698,-22.33,-35.0,15.47,0.6651,-0.6412,0.2122
14.715,-14.14,-36.4,14.28,0.6431,-0.6451,0.2117
14.733,-6.09,-38.78,12.88,0.6578,-0.6788,0.2322
14.75,2.24,-41.09,7.35,0.668,-0.6963,0.2415
14.764,10.43,-42.14,-0.28,0.6402,-0.7222,0.2361
14.782,17.22,-42.49,-11.27,0.6158,-0.7485,0.2122
14.799,24.99,-40.6699,-23.3799,0.5343,-0.7656,0.2069
14.813,31.99,-37.8,-30.8,0.447,-0.792,0.2015
14.829,39.55,-34.02,-36.12,0.4162,-0.8608,0.1771
14.846,46.06,-28.63,-36.33,0.4108,-0.996,0.1161
14.86,49.84,-25.2,-31.78,0.4323,-1.155,0.0522
14.876,50.82,-22.89,-21.56,0.4948,-1.3185,-0.0229
14.89,50.05,-22.33,-10.15,0.5538,-1.3771,-0.0868
14.906,49.28,-22.05,0.07,0.5338,-1.3097,-0.1102
14.921,49.98,-21.14,6.86,0.464,-1.158,-0.0775
14.939,51.38,-19.32,7.07,0.4099,-1.0614,-0.038
14.957,56.07,-16.45,5.81,0.3821,-0.9037,0.0048
14.974,60.48,-15.26,6.02,0.3728,-0.7983,0.0209
14.992,65.8,-15.26,10.01,0.3782,-0.7564,0.0341
15.01,69.0899,-16.87,16.87,0.4172,-0.8091,0.0229
15.028,70.42,-21.2099,22.89,0.4748,-0.8359,0.0039
15.046,68.88,-27.23,26.74,0.526,-0.9711,-0.0122
15.063,62.86,-33.81,26.11,0.5807,-1.0726,-0.039
15.079,56.63,-40.88,20.3,0.586,-1.1248,-0.0444
15.094,48.23,-45.78,9.9399,0.5153,-1.1336,-0.0356
15.111,39.27,-49.4199,-7.91,0.4352,-1.1409,0.0058
15.129,31.92,-51.45,-19.39,0.364,-1.1468,0.0185
15.146,23.59,-52.0099,-20.09,0.323,-1.1092,0.0322
15.164,20.09,-51.94,-8.68,0.2747,-1.0282,0.0307
15.181,20.23,-51.31,8.89,0.2601,-0.9506,0.0253
15.198,22.12,-50.96,28.84,0.2835,-0.8842,0.0063
15.214,24.57,-51.59,38.57,0.3391,-0.8252,-0.019
15.229,26.67,-52.92,39.48,0.3747,-0.7583,-0.0263
15.246,28.42,-55.37,28.77,0.4089,-0.7163,-0.0268
15.264,29.26,-57.75,8.47,0.405,-0.6841,-0.0156
15.28,30.31,-59.36,-4.69,0.3581,-0.6714,-0.0019
15.296,32.34,-60.13,-10.43,0.3206,-0.6993,-0.0302
15.313,33.53,-60.48,-5.7399,0.2981,-0.7568,-0.0741
15.328,32.62,-61.04,7.42,0.2791,-0.8144,-0.0805
15.345,25.34,-62.51,26.32,0.2776,-0.9579,-0.061
15.362,12.11,-66.85,50.19,0.3835,-1.1648,-0.0439
15.378,-6.93,-72.38,74.41,0.4533,-1.3415,-0.0244
15.394,-28.0,-79.45,95.97,0.6212,-1.5659,0.0331
15.412,-52.43,-91.8399,119.7,0.8705,-1.5162,0.142
15.43,-84.14,-99.75,116.2,0.7627,-1.2112,0.0473
15.446,-99.89,-97.86,77.49,0.3679,-0.8335,-0.0522
15.462,-107.94,-91.98,5.25,0.2088,-0.7632,-0.1869
15.476,-108.64,-87.85,-57.82,0.3742,-0.6792,-0.2318
15.49,-102.62,-83.58,-108.22,0.3176,-0.6412,-0.3201
15.504,-89.88,-79.8,-142.24,0.3806,-0.5734,-0.3933
15.517,-72.24,-76.0199,-158.97,0.3459,-0.6734,-0.5338
15.533,-51.66,-67.97,-156.1,0.3577,-0.7661,-0.5987
15.55,-22.33,-59.08,-130.13,0.3552,-0.8398,-0.5831
15.565,-4.69,-50.05,-102.97,0.3211,-0.8701,-0.5328
15.583,22.47,-39.62,-71.54,0.3664,-0.8569,-0.4089
15.599,36.19,-33.11,-55.3,0.4348,-0.8359,-0.2278
15.614,47.81,-29.26,-46.41,0.5289,-0.7446,-0.1444
15.642,65.73,-27.3,-35.21,0.6363,-0.65,-0.0102
15.657,72.1,-27.23,-30.31,0.6217,-0.5963,0.0175
15.675,79.38,-26.39,-25.48,0.5699,-0.5836,-0.038
15.692,83.86,-25.48,-24.7099,0.568,-0.586,-0.0839
15.707,85.61,-24.78,-29.47,0.5533,-0.6236,-0.1141
15.725,84.91,-23.73,-41.37,0.5382,-0.6451,-0.1698
15.741,81.41,-23.1,-53.97,0.5577,-0.7027,-0.1981
15.754,76.0899,-22.82,-68.88,0.5699,-0.7646,-0.2108
15.772,70.35,-22.75,-88.13,0.5792,-0.8266,-0.2181
15.79,56.35,-23.3799,-98.98,0.5655,-0.8984,-0.2181
15.807,47.32,-24.92,-98.21,0.5948,-0.9764,-0.2723
15.822,39.69,-25.9,-90.3,0.5377,-0.9442,-0.2669
15.84,30.03,-26.67,-69.58,0.4762,-0.9686,-0.2244
15.858,21.28,-28.0,-39.83,0.5524,-0.9921,-0.202
15.874,13.86,-31.15,-7.42,0.6383,-0.9608,-0.1444
15.89,7.63,-33.95,19.53,0.6329,-0.8769,-0.1166
15.904,2.17,-35.91,35.63,0.5021,-0.8027,-0.1234
15.922,-4.9,-37.52,48.65,0.6119,-0.6314,-0.1424
15.94,-10.71,-38.78,53.13,0.588,-0.6436,-0.1551
15.956,-13.02,-38.57,54.74,0.4967,-0.5382,-0.2025
15.972,-14.28,-37.73,56.21,0.467,-0.5348,-0.2396
15.99,-15.61,-38.9199,63.77,0.528,-0.6036,-0.2503
16.008,-20.72,-44.1,73.22,0.671,-0.7476,-0.2132
16.024,-27.23,-51.24,77.49,0.8095,-0.769,-0.1859
16.042,-33.39,-57.26,68.04,0.7851,-0.7603,-0.2254
16.06,-41.65,-59.01,46.97,0.6524,-0.6675,-0.2274
16.078,-43.2599,-58.31,24.7099,0.5572,-0.6944,-0.222
16.096,-43.12,-57.82,18.55,0.5729,-0.8725,-0.1478
16.113,-39.27,-56.98,23.31,0.5719,-0.7915,-0.1815
16.129,-33.25,-54.88,32.9,0.6095,-0.8378,-0.1766
16.145,-25.27,-52.43,40.74,0.628,-0.8383,-0.2078
16.159,-16.17,-48.58,44.31,0.61,-0.8198,-0.2405
16.175,-5.04,-42.91,39.97,0.5914,-0.8291,-0.2449
16.189,6.58,-36.54,31.15,0.5202,-0.7671,-0.2698
16.207,22.9599,-24.29,18.62,0.4509,-0.7817,-0.2957
16.224,40.39,-12.67,12.18,0.4113,-0.8237,-0.302
16.241,58.8,-2.45,11.41,0.4811,-0.9379,-0.2737
16.257,70.14,5.32,13.65,0.5392,-1.0033,-0.2098
16.272,80.71,10.85,15.68,0.5465,-1.0433,-0.1293
16.29,88.41,17.29,15.68,0.5411,-1.057,-0.0287
16.306,93.45,21.84,13.51,0.5299,-1.0418,0.0761
16.321,97.72,25.55,12.46,0.5143,-1.0301,0.118
16.339,100.38,29.89,10.71,0.5226,-1.0516,0.1688
16.357,101.57,32.69,7.42,0.5846,-1.116,0.2259
16.375,103.46,35.49,4.41,0.5982,-1.1472,0.3567
16.392,106.68,36.12,6.65,0.708,-1.1048,0.4001
16.407,111.23,35.7,19.95,0.8798,-1.0877,0.4084
16.422,120.47,32.7599,19.67,0.81,-1.0682,0.4665
16.438,132.02,32.7599,16.17,0.8027,-1.056,0.4826
16.451,144.62,39.13,5.39,0.6783,-1.0726,0.5402
16.465,161.28,40.32,-8.75,0.7154,-0.9145,0.5431
16.481,171.5,45.08,-25.69,0.6866,-1.1648,0.4767
16.511,188.7899,61.32,-44.45,0.5324,-1.5796,0.5255
16.527,193.55,70.63,-41.93,0.4728,-1.5982,0.5319
16.545,197.5399,76.37,-25.34,0.4148,-1.6894,0.5011
16.563,203.49,83.23,-3.64,0.3747,-1.277,0.5899
16.579,208.25,85.89,5.11,0.0727,-0.8305,0.4567
16.597,206.78,86.5899,0.63,0.3991,-0.9877,0.0468
16.615,206.78,81.13,1.05,0.5436,-0.6329,-0.0595
16.631,205.1,77.35,4.06,0.3625,-0.4108,-0.1483
16.647,205.45,74.2,9.45,0.0985,-0.221,-0.1927
16.663,208.0399,73.15,19.18,0.0854,0.1722,-0.1141
16.681,214.41,65.5899,27.86,0.2132,0.1834,-0.1151
16.696,214.48,64.4,32.41,-0.0283,-0.0595,0.4396
16.713,215.25,61.6,37.1,-0.0941,-0.0678,0.484
16.729,206.92,56.0,33.81,0.7466,-3.1998,-0.283
16.742,163.03,38.99,35.77,0.4645,-2.2369,-0.3303
16.756,127.61,34.86,34.23,-0.02,-1.888,0.1503
16.773,109.97,33.11,38.85,0.1439,-0.8837,0.7212
16.79,107.1,23.59,45.99,0.2737,0.3762,1.7036
16.807,84.91,14.56,27.72,0.3347,-1.4449,0.6319
16.825,48.16,13.58,8.4,-0.1449,-1.3751,0.669
16.841,14.07,15.96,-12.95,-0.243,-1.4805,0.7729
16.859,-21.91,21.84,-42.49,-0.3191,-1.2619,0.7847
16.877,-46.69,25.2,-58.1,-0.2479,-1.0043,0.7188
16.895,-65.5199,25.41,-57.82,-0.0834,-0.7973,0.7056
16.909,-76.3,23.52,-53.9,0.0346,-0.7954,0.7129
16.926,-85.68,21.84,-43.75,-0.0268,-0.6309,0.7027
16.944,-92.75,18.83,-30.38,0.057,-0.6563,0.913
16.959,-97.16,16.87,-24.57,0.2342,-0.5548,1.198
16.975,-106.26,13.37,-26.39,0.2742,-0.9379,0.6661
16.99,-119.07,7.98,-34.86,0.4782,-1.0423,0.6871
17.006,-130.76,1.82,-47.81,0.2693,-0.9242,0.8715
17.022,-138.1799,-1.4,-58.52,0.3001,-0.7666,0.7007
17.039,-128.87,-15.89,-63.14,0.5607,0.3581,0.2918
17.057,-112.7,-31.36,-61.39,0.5499,-0.3015,0.181
17.073,-105.56,-42.21,-56.77,0.5582,-0.4865,0.3079
17.088,-100.24,-51.52,-52.57,0.6895,-0.2859,0.486
17.103,-97.51,-66.85,-59.29,0.6763,-0.1244,0.3874
17.119,-91.7,-76.37,-70.07,0.6553,-0.1078,0.1146
17.137,-92.33,-83.79,-71.61,0.405,-0.5992,0.059
17.155,-136.22,-76.86,-67.3399,-0.0536,-2.216,0.8637
17.172,-168.28,-83.93,-59.43,0.6002,-1.7333,1.4503
17.19,-187.74,-94.29,-50.75,0.9228,-1.4942,1.0604
17.208,-213.43,-104.79,-57.4,0.9628,-1.34,1.034
17.223,-230.72,-111.44,-63.77,0.8003,-0.8115,0.8208
17.241,-225.4,-110.88,-52.15,0.6451,-0.3889,0.4245
17.259,-199.64,-97.16,-29.82,0.2117,-0.3577,0.2708
17.276,-169.12,-74.2699,-9.7299,0.1141,-0.4309,0.0644
17.292,-135.03,-45.5,-7.98,0.0878,-0.4655,-0.0126
17.31,-111.09,-11.9,-25.27,0.1678,-0.5524,-0.0161
17.328,-72.03,10.08,-32.27,0.426,-0.8574,0.078
17.346,-54.95,25.97,-32.13,0.6914,-1.0189,0.1605
17.364,-50.89,34.86,-37.1699,0.8476,-1.197,0.2337
17.382,-52.5,39.41,-46.06,0.9154,-1.2009,0.2698
17.397,-55.65,43.75,-59.57,0.7651,-1.1448,0.2835
17.415,-60.34,50.2599,-78.33,0.7363,-1.0609,0.2825
17.431,-63.98,58.38,-95.2,0.668,-1.0116,0.2786
17.446,-67.13,64.61,-111.58,0.7354,-0.9242,0.2278
17.464,-73.08,70.14,-141.82,0.7729,-0.8598,0.1844
17.48,-82.39,74.2699,-180.81,0.6475,-0.7886,0.2654
17.498,-91.7,76.3,-197.4,0.6222,-0.7432,0.243
17.516,-99.12,73.08,-171.99,0.65,-0.7051,0.1942
17.532,-101.36,69.51,-133.49,0.6373,-0.6241,0.1566
17.55,-99.75,61.6,-58.8,0.6768,-0.6178,0.1483
17.568,-94.08,58.73,3.08,0.7276,-0.6256,0.1195
17.583,-90.51,57.54,31.43,0.7129,-0.4889,0.201
17.598,-90.65,61.32,11.4799,0.4923,-0.505,0.2859
17.616,-96.32,65.87,-14.07,0.6846,-0.6304,0.1854
17.634,-99.47,64.82,-20.02,0.8466,-0.6407,0.1507
17.652,-98.8399,66.57,-16.94,0.7637,-0.6412,0.1542
17.666,-96.95,68.53,-10.85,0.7402,-0.6158,0.1449
17.684,-92.4,71.33,-7.56,0.7495,-0.5592,0.1727
17.7,-89.53,73.01,-12.39,0.7485,-0.5729,0.2152
17.718,-89.25,73.29,-23.66,0.7676,-0.6763,0.2571
17.734,-91.42,72.1,-38.15,0.7183,-0.6958,0.264
17.752,-93.17,69.23,-54.39,0.6353,-0.6949,0.2571
17.77,-93.87,63.49,-57.75,0.6529,-0.6222,0.2888
17.787,-93.31,55.58,-49.84,0.6783,-0.6202,0.3469
17.802,-91.35,46.41,-36.47,0.7198,-0.6334,0.3772
17.816,-88.41,38.29,-20.58,0.7534,-0.5446,0.362
17.834,-82.95,31.64,-3.71,0.709,-0.5314,0.3474
17.85,-75.74,27.02,12.74,0.7793,-0.5148,0.3479
17.868,-65.87,21.84,26.11,0.872,-0.507,0.3279
17.883,-57.82,20.93,21.35,0.7876,-0.4596,0.3069
17.898,-50.12,24.22,9.31,0.7456,-0.4738,0.3328
17.914,-42.56,26.67,7.0,0.8769,-0.568,0.4289
17.932,-35.56,27.37,25.48,0.9916,-0.5636,0.4357
17.95,-25.06,28.7,34.65,1.0472,-0.4992,0.4514
17.968,-23.1,32.13,15.4,1.0418,-0.4889,0.4489
17.985,-28.28,38.36,-22.05,0.9716,-0.5982,0.4084
18.003,-39.62,47.18,-70.7,0.8335,-0.669,0.3962
18.019,-53.34,60.9,-94.99,0.5641,-0.6661,0.343
18.037,-67.62,82.81,-90.3,0.3464,-0.6636,0.3269
18.055,-76.93,107.73,-45.99,0.1537,-0.6944,0.3528
18.072,-83.51,128.59,0.28,0.1327,-0.6729,0.363
18.088,-89.32,143.5,28.21,0.2332,-0.6983,0.3581
18.105,-95.76,159.32,26.88,0.3152,-0.7222,0.3396
18.121,-102.13,169.4,12.95,0.3279,-0.69,0.3142
18.139,-107.59,176.33,6.09,0.3186,-0.732,0.2771
18.157,-109.34,180.81,15.68,0.2713,-0.7417,0.2771
18.174,-110.95,183.12,33.74,0.2415,-0.894,0.3172
18.191,-113.96,182.35,63.77,0.3357,-0.9867,0.3777
18.205,-113.61,181.37,94.92,0.3074,-0.9169,0.2986
18.221,-111.37,179.55,126.7,0.2723,-0.9096,0.244
18.239,-110.18,175.91,161.21,0.3172,-0.9642,0.242
18.256,-115.29,169.96,177.31,0.5114,-1.2717,0.2981
18.273,-125.23,161.07,174.23,0.5704,-1.2444,0.3952
18.288,-134.96,150.01,153.02,0.5275,-1.198,0.3986
18.303,-147.84,142.38,122.64,0.4118,-1.1033,0.4967
18.318,-158.2,134.96,87.57,0.2723,-1.0096,0.302
18.335,-168.28,125.3,64.96,0.1005,-0.9223,0.2635
18.35,-177.45,115.99,56.28,-0.0497,-0.9354,0.1551
18.368,-188.72,105.56,50.61,-0.2093,-1.24,0.1068
18.385,-207.9,96.11,40.6699,-0.2732,-1.3683,0.0795
18.401,-222.6,85.96,22.33,-0.446,-1.3961,-0.0283
18.417,-241.5,81.41,2.03,-0.7032,-1.1477,0.1532
18.431,-250.95,76.79,-8.33,-0.7861,-1.3873,-0.3713
18.449,-261.31,43.61,12.53,-0.162,-1.5767,-0.7363
18.462,-267.68,27.51,76.51,-0.3557,-1.5757,-0.8535
18.476,-264.18,1.68,146.9299,-0.1312,-1.6552,-1.0047
18.49,-257.74,-28.28,203.77,-0.444,-1.6269,-1.1838
18.508,-254.17,-33.6,233.24,-0.465,-1.5381,-1.4962
18.524,-251.93,-54.18,215.67,-0.183,-1.461,-1.7275
18.538,-252.49,-83.0199,177.1,0.2005,-1.4576,-1.9539
18.566,-259.35,-177.24,70.21,0.4431,-1.4762,-2.4234
18.58,-260.4,-243.04,16.87,0.6949,-1.4064,-2.4907
18.596,-257.74,-335.79,-15.47,1.0374,-1.7665,-2.5971
18.614,-258.5799,-442.47,-23.45,1.2361,-2.3672,-2.5263
18.631,-248.08,-553.98,20.79,1.6396,-2.2584,-2.3355
18.648,-220.57,-685.79,80.36,2.3638,-1.4815,-2.1057
18.663,-190.4,-779.6599,81.62,2.7084,-1.1731,-1.5406
18.679,-263.13,-954.66,-411.25,1.9227,0.7603,1.1302
18.694,-41.44,-263.8299,-475.37,-5.1664,1.8544,-6.9666
18.712,-219.94,-378.63,212.03,-3.3486,-1.2888,1.5806
18.73,109.13,-707.14,365.68,1.1189,1.117,1.7636
18.748,33.04,-705.53,268.45,5.8608,-0.627,0.0087
18.766,40.18,-605.5,44.87,2.4927,-0.2586,1.0399
18.784,52.92,-755.51,-308.14,-1.949,0.3333,1.5454
18.8,76.93,-679.49,-565.81,1.5264,-0.6041,1.0994
18.815,144.27,-612.92,-751.52,1.2224,-0.4601,1.2224
18.829,216.72,-480.13,-857.15,-0.1,-0.9203,1.1472
18.847,311.57,-393.68,-898.31,0.9433,-1.0975,1.2731
18.865,381.22,-310.03,-845.74,1.219,-1.0887,1.2985
18.881,419.79,-223.51,-721.63,1.5723,-0.9418,1.3293
18.899,445.97,-157.4299,-538.86,0.7686,-0.9506,1.2648
18.915,455.21,-109.34,-370.51,1.0643,-1.0492,1.2517
18.93,453.53,-95.13,-215.88,1.0994,-0.913,0.9501
18.947,437.57,-96.32,-72.66,0.8784,-0.9969,0.6968
18.961,398.65,-103.32,10.22,0.5211,-1.2004,0.5802
18.978,364.77,-113.19,53.34,0.2757,-1.2248,0.6119
18.994,301.84,-112.0,20.37,0.0043,-1.2424,0.4431
19.009,243.6,-99.61,-38.5,-0.0136,-1.0409,0.0527
19.026,183.96,-89.6,-73.01,0.1751,-0.792,-0.2059
19.044,135.8,-85.75,-10.29,0.3162,-0.5821,-0.4338
19.06,106.89,-87.92,64.82,0.5402,-0.221,-0.6339
19.075,84.56,-91.42,133.7,0.629,-0.1215,-0.6856
19.093,60.34,-94.99,164.92,0.7139,-0.1244,-0.6836
19.111,32.13,-97.79,171.92,0.8003,-0.1015,-0.5958
19.129,0.84,-99.26,173.39,0.9272,-0.0219,-0.587
19.145,-12.81,-102.06,169.4,1.0531,-0.0751,-0.5197
19.163,-23.59,-106.26,160.16,1.1102,-0.1546,-0.5192
19.181,-36.89,-109.06,139.72,1.0882,-0.1034,-0.4972
19.197,-39.2,-110.74,120.68,1.1687,-0.1063,-0.4284
19.215,-36.33,-114.24,91.0,1.2053,-0.0819,-0.4162
19.231,-33.25,-118.23,68.18,1.4283,-0.2215,-0.3196
19.248,-26.39,-123.48,54.74,1.4581,-0.2806,-0.2474
19.263,-20.09,-126.21,38.5,1.5874,-0.0653,-0.1546
19.279,-15.47,-110.88,96.32,1.2526,-0.2122,0.0702
19.294,-13.3,-103.53,121.03,1.3249,-0.2278,-0.08
19.309,-10.29,-62.3,187.1799,1.0252,-0.2186,-0.0502
19.327,-29.47,-35.7,167.9299,1.057,-0.2708,-0.1781
19.344,-31.78,-12.88,132.9299,1.1511,-0.0214,-0.0658
19.36,-29.47,-0.98,66.99,1.277,0.0976,-0.0448
19.376,-25.2,6.09,19.74,1.4464,0.1127,-0.0771
19.394,-9.03,13.23,25.48,1.4757,0.1849,-0.0653
19.411,4.48,18.1299,59.43,1.3756,0.0834,-0.0117
19.428,14.98,24.57,97.44,1.2141,-0.1698,0.0507
19.444,17.15,36.19,71.82,1.1999,0.019,0.0707
19.462,20.86,45.78,60.41,1.2278,-0.0629,0.0897
19.48,-96.18,41.65,-59.64,1.0814,0.1068,-0.3562
19.498,-93.5199,37.31,-51.24,1.3288,-0.0863,-0.1927
19.516,-75.04,39.83,-15.75,1.0623,0.0649,-0.0029
19.533,-69.51,32.41,-8.26,1.0877,0.0951,-0.1215
19.548,-64.19,26.11,13.72,1.0784,0.0082,-0.1229
19.566,-56.49,19.81,62.44,1.135,-0.1659,-0.1068
19.584,-43.75,16.59,119.49,1.016,-0.1605,-0.0946
19.602,-38.43,16.52,156.24,0.9252,-0.18,0.0087
19.617,-29.19,32.48,152.88,0.6954,-0.0517,0.0644
19.635,-16.66,46.41,107.52,0.4128,-0.0927,0.3142
19.652,-6.16,64.54,79.5199,0.3372,-0.2781,0.3938
19.67,4.34,71.19,55.58,0.9467,0.3001,0.2971
19.683,1.54,62.65,25.97,1.9407,-0.7676,-0.1049
19.699,-1.89,51.66,-9.9399,1.6811,-0.345,0.2103
19.716,-0.21,52.71,-45.5,1.0667,-0.0971,0.2888
19.734,-0.42,62.02,-76.37,0.5372,-0.2586,0.1117
19.75,-7.14,69.37,-87.22,0.5265,-0.5426,0.0946
19.766,-13.51,70.0,-82.95,0.8032,-0.6836,0.4811
19.784,-17.7099,68.25,-74.48,0.8266,-0.6348,0.5333
19.798,-19.32,67.55,-67.13,0.8076,-0.4182,0.3908
19.814,-20.58,66.85,-61.95,0.831,-0.3733,0.2669
19.83,-22.54,64.96,-57.54,1.0384,-0.4084,0.3152
19.845,-25.83,58.87,-53.83,1.3063,-0.5255,0.3411
19.861,-29.75,51.73,-47.74,1.1985,-0.5968,0.3562
19.879,-35.28,51.45,-32.27,0.9013,-0.7427,0.2557
19.897,-49.91,54.81,-9.38,0.9969,-1.503,0.2259
19.915,-65.8,44.38,40.18,1.461,-0.7715,0.8012
19.932,-51.59,36.12,106.12,0.9779,-0.0849,0.7105
19.949,-47.04,29.05,152.53,0.8964,-0.3401,-0.057
19.967,-46.9,29.68,189.84,0.6685,-0.4528,0.3694
19.985,-54.88,32.69,156.52,0.7154,-0.5353,0.2542
20.003,-60.41,42.0,116.55,0.6256,-0.4514,0.1966
20.02,-62.93,44.59,83.79,0.7256,-0.4026,0.1444
20.036,-62.86,45.36,75.32,0.7583,-0.5123,0.2532
20.054,-63.77,40.6,82.25,0.9335,-0.5856,0.3274
20.071,-65.38,34.44,87.78,0.8603,-0.6802,0.2981
20.088,-66.78,29.47,85.54,0.8061,-0.61,0.3025
20.103,-67.69,25.97,79.5899,0.7637,-0.6544,0.3152
20.118,-68.04,22.61,79.66,0.7925,-0.6753,0.3269
20.134,-68.67,18.76,86.8,0.8442,-0.7544,0.3855
20.15,-68.04,16.87,95.97,0.7837,-0.7149,0.4084
20.168,-65.5899,17.57,104.0899,0.7046,-0.7022,0.424
20.186,-62.23,18.69,104.93,0.7202,-0.7583,0.406
20.203,-60.97,18.2,92.61,0.812,-0.8471,0.426
20.217,-60.27,18.48,71.33,0.752,-0.7949,0.4709
20.235,-59.5,19.04,34.5099,0.7017,-0.8086,0.464
20.253,-58.03,21.2099,6.51,0.6548,-0.7978,0.4255
20.266,-54.88,22.75,-7.42,0.607,-0.8296,0.3738
20.28,-52.0099,23.59,-9.8,0.5846,-0.853,0.3167
20.295,-49.4199,24.5,-5.04,0.5714,-0.8505,0.2576
20.309,-46.2,25.34,2.38,0.5055,-0.853,0.2557
20.325,-43.47,27.79,12.67,0.465,-0.8271,0.2293
20.339,-40.04,29.75,19.95,0.4772,-0.792,0.2239
20.369,-36.19,34.23,16.94,0.4655,-0.7559,0.2332
20.387,-34.16,35.7,15.26,0.5119,-0.7529,0.241
20.4,-33.04,35.14,15.26,0.5758,-0.7603,0.24
20.416,-32.41,33.95,13.58,0.5909,-0.7705,0.2605
20.432,-31.29,33.18,11.9,0.5924,-0.7642,0.2591
20.446,-29.4,32.2,12.74,0.6143,-0.7768,0.2522
20.46,-27.58,30.52,14.35,0.6348,-0.769,0.2386
20.474,-25.34,29.68,14.42,0.6095,-0.7559,0.2308
20.489,-22.05,29.33,14.35,0.5831,-0.75,0.222
20.517,-17.43,29.26,10.57,0.5709,-0.7412,0.1815
20.532,-13.86,30.1,6.93,0.5636,-0.7383,0.1776
20.548,-10.99,30.45,5.67,0.567,-0.7768,0.1576
20.566,-6.93,29.96,14.63,0.5919,-0.811,0.182
20.583,-4.2,28.35,24.57,0.6051,-0.8588,0.22
20.601,-2.8699,26.67,28.14,0.5929,-0.8754,0.2235
20.619,-2.8699,24.29,24.57,0.586,-0.8784,0.244
20.637,-3.36,21.49,14.98,0.5851,-0.893,0.2313
20.652,-3.71,18.69,9.1,0.5938,-0.8798,0.2225
20.667,-3.92,15.26,6.79,0.588,-0.8871,0.2142
20.683,-3.99,11.41,7.49,0.5582,-0.8852,0.2161
20.701,-4.34,7.7,12.81,0.5143,-0.8803,0.2303
20.718,-4.83,5.46,19.74,0.4943,-0.8793,0.2264
20.735,-5.88,4.41,26.04,0.4816,-0.8832,0.2156
20.753,-6.93,3.85,31.85,0.4894,-0.8618,0.2152
20.771,-7.21,4.34,37.66,0.4611,-0.8232,0.2161
20.787,-7.28,5.46,40.46,0.4367,-0.7744,0.2274
20.802,-7.07,7.21,42.28,0.4411,-0.7422,0.2342
20.817,-6.72,8.54,42.63,0.4562,-0.6944,0.2376
20.834,-6.16,9.87,35.91,0.4553,-0.6309,0.2493
20.852,-6.16,11.41,22.4,0.4699,-0.5953,0.2591
20.869,-5.95,12.18,11.06,0.4943,-0.5709,0.2576
20.887,-4.9,12.81,3.43,0.5099,-0.5421,0.2727
20.905,-2.31,13.37,-0.56,0.5241,-0.6051,0.2132
20.923,-1.05,14.28,-1.96,0.507,-0.7524,0.1161
20.941,-3.85,15.19,-0.98,0.5343,-1.0316,-0.1005
20.958,-7.84,15.89,1.82,0.5324,-1.1189,-0.1625
20.973,-12.6,16.45,3.29,0.5694,-1.2263,-0.1498
20.989,-21.0,16.45,3.5,0.6207,-1.38,-0.1532
21.007,-29.33,15.75,2.45,0.6636,-1.3961,-0.1371
21.022,-38.57,15.68,-0.77,0.688,-1.3434,-0.1288
21.04,-47.11,15.47,-4.69,0.7144,-1.2004,-0.0551
21.057,-49.49,14.21,-3.57,0.791,-1.0306,0.0117
21.074,-47.81,11.6899,1.19,0.8169,-0.8193,0.0732
21.092,-42.21,9.24,6.02,0.8276,-0.6871,0.1464
21.108,-34.93,7.77,6.16,0.7842,-0.547,0.1732
21.123,-27.23,7.28,3.29,0.7651,-0.4728,0.1527
21.139,-17.92,7.56,-1.4,0.7012,-0.4553,0.1317
21.153,-10.57,9.1,-7.77,0.628,-0.4675,0.1346
21.17,-3.92,11.83,-14.07,0.5675,-0.5587,0.1639
21.188,0.0,14.84,-23.73,0.5094,-0.6607,0.2215
21.206,0.56,17.22,-36.2599,0.4704,-0.7427,0.2547
21.224,-1.68,18.83,-46.7599,0.4382,-0.914,0.2898
21.242,-5.04,19.4599,-45.43,0.4504,-1.0072,0.3006
21.258,-7.63,18.41,-34.58,0.4758,-1.0931,0.3274
21.273,-11.27,17.15,-19.11,0.5045,-1.155,0.2967
21.289,-13.86,14.98,-4.2,0.5236,-1.1536,0.3357
21.305,-15.33,13.09,8.26,0.547,-1.1316,0.3211
21.323,-16.59,12.39,9.52,0.528,-1.075,0.303
21.338,-16.8,13.58,4.83,0.4797,-1.0072,0.2654
21.356,-15.4,16.24,-2.24,0.445,-0.9272,0.2508
21.372,-13.16,19.04,-4.27,0.4514,-0.8925,0.2601
21.387,-10.99,21.6299,-1.89,0.4777,-0.8666,0.2713
21.403,-9.1,23.45,2.1,0.4933,-0.8496,0.2762
21.421,-8.33,26.67,4.34,0.4826,-0.8271,0.2884
21.436,-9.24,29.47,3.22,0.4831,-0.8344,0.2874
21.449,-10.71,32.34,1.19,0.4777,-0.8066,0.2757
21.467,-13.23,37.45,-4.9,0.4753,-0.7847,0.2649
21.485,-15.68,41.16,-13.51,0.4304,-0.7105,0.2801
21.501,-19.39,48.93,-20.3,0.3899,-0.6592,0.2796
21.519,-21.42,55.16,-17.7099,0.4021,-0.607,0.2674
21.536,-21.91,59.36,-9.31,0.4133,-0.5641,0.2479
21.552,-21.6299,62.58,0.28,0.4167,-0.5485,0.2425
21.567,-21.77,64.82,8.47,0.4255,-0.548,0.2191
21.585,-22.9599,66.29,12.67,0.4523,-0.5953,0.1956
21.603,-25.41,67.2,8.68,0.4392,-0.6451,0.1581
21.617,-28.35,67.2699,1.26,0.4328,-0.6914,0.1127
21.633,-32.7599,66.99,-7.35,0.4504,-0.7612,0.0497
21.649,-38.08,65.24,-11.55,0.4855,-0.8418,-0.1239
21.667,-43.2599,61.25,-12.6,0.5241,-0.9345,-0.0351
21.685,-52.36,56.63,-13.23,0.5538,-1.0818,-0.0893
21.703,-59.36,52.71,-18.1299,0.5553,-1.1638,-0.1088
21.721,-69.93,50.2599,-27.58,0.4914,-1.2302,-0.1205
21.738,-78.75,47.81,-31.85,0.5246,-1.3161,-0.1878
21.753,-84.35,45.29,-28.98,0.5607,-1.3449,-0.2723
21.769,-88.76,43.12,-24.43,0.5138,-1.3073,-0.281
21.787,-91.35,44.1699,-22.75,0.4221,-1.2863,-0.2415
21.805,-93.66,46.97,-21.28,0.386,-1.2229,-0.0902
21.823,-93.03,49.21,-13.02,0.4548,-1.2034,-0.0141
21.84,-89.53,48.93,6.23,0.6182,-1.1219,-0.0063
21.856,-83.51,46.83,19.95,0.708,-1.0306,-0.0366
21.873,-75.74,44.94,24.7099,0.6983,-0.9315,-0.0624
21.891,-66.01,44.45,17.22,0.6436,-0.81,-0.0531
21.904,-59.64,44.1699,9.87,0.6256,-0.771,-0.0546
21.918,-52.15,43.4,5.6,0.6256,-0.75,-0.0395
21.935,-43.05,41.16,4.27,0.6192,-0.7549,-0.0253
21.954,-36.82,38.36,3.64,0.5899,-0.793,-0.0029
21.97,-32.62,35.84,0.56,0.5514,-0.8125,0.0287
21.986,-30.52,34.02,-4.41,0.506,-0.8369,0.0688
22.002,-29.54,31.99,-8.82,0.4616,-0.8217,0.1029
22.019,-28.56,29.75,-12.6,0.4406,-0.7993,0.139
22.037,-26.25,27.58,-12.67,0.4191,-0.7485,0.1605
22.054,-23.31,25.76,-8.96,0.3938,-0.6851,0.1815
22.072,-20.09,24.15,-4.83,0.3742,-0.6466,0.1912
22.085,-15.75,23.17,-0.98,0.3533,-0.5982,0.2103
22.099,-11.6899,22.4,3.15,0.3513,-0.5704,0.2269
22.115,-7.63,21.49,6.58,0.345,-0.5572,0.24
22.132,-2.59,20.72,8.54,0.323,-0.525,0.2571
22.146,2.8,19.95,9.66,0.3093,-0.5114,0.2762
22.175,12.04,17.08,15.82,0.3381,-0.5553,0.2913
22.193,16.1,13.23,20.37,0.3767,-0.6631,0.2415
22.21,18.69,7.7,24.36,0.5182,-0.8261,0.1259
22.226,18.62,-16.8,26.6,0.6168,-1.0511,0.0439
22.24,15.68,-7.7,22.19,0.6744,-1.237,0.0034
22.256,9.87,-14.28,7.42,0.6148,-1.3205,-0.0858
22.272,3.92,-17.64,-11.9,0.4548,-1.3688,-0.1473
22.289,-1.05,-17.36,-34.37,0.3596,-1.4112,-0.2108
22.304,-3.43,-16.73,-39.27,0.384,-1.4147,-0.264
22.322,-3.29,-16.87,-30.87,0.4172,-1.4039,-0.2942
22.339,-1.89,-17.64,-18.41,0.4533,-1.4034,-0.3093
22.357,0.77,-17.01,-8.75,0.4157,-1.3585,-0.3176
22.372,3.01,-14.84,-5.32,0.3713,-1.2634,-0.3035
22.388,6.72,-11.62,-7.07,0.3279,-1.1511,-0.2874
22.405,12.18,-7.0,-8.12,0.3215,-1.0291,-0.281
22.421,19.4599,-3.43,-5.53,0.3172,-0.9154,-0.2547
22.437,28.0,0.21,17.43,0.3147,-0.832,-0.2078
22.451,35.35,2.52,7.0,0.3269,-0.7656,-0.1654
22.465,42.7,3.85,34.23,0.3484,-0.7158,-0.1371
22.479,49.07,4.41,24.08,0.3567,-0.6714,-0.1093
22.493,54.39,3.99,30.03,0.3703,-0.6344,-0.0893
22.508,58.38,3.01,31.64,0.3879,-0.6046,-0.0683
22.526,61.39,0.21,28.91,0.4074,-0.5831,-0.0385
22.544,63.21,-3.92,23.1,0.4543,-0.586,-0.017
22.562,62.72,-8.61,13.72,0.5075,-0.6124,0.0004
22.58,60.41,-13.72,4.06,0.5084,-0.6187,0.0331
22.596,57.19,-17.64,-5.88,0.4928,-0.6573,0.039
22.614,53.62,-21.35,-14.63,0.5016,-0.6866,0.038
22.63,50.05,-24.15,-19.53,0.5275,-0.7076,0.0161
22.646,46.69,-27.02,-23.8,0.5319,-0.731,-0.0004
22.664,43.4,-29.4,-28.84,0.5211,-0.789,-0.0258
22.677,38.78,-29.96,-34.65,0.505,-0.9184,-0.1351
22.691,32.55,-30.73,-41.37,0.5553,-1.1243,-0.2747
22.706,23.87,-32.9,-48.3,0.6539,-1.2868,-0.3596
22.724,13.51,-34.72,-61.32,0.6431,-1.3942,-0.3889
22.737,-3.78,-34.23,-74.13,0.4836,-1.4566,-0.3176
22.751,-17.36,-31.15,-89.46,0.3733,-1.4269,-0.1722
22.768,-27.72,-27.02,-95.3399,0.3313,-1.3561,-0.0409
22.796,-46.13,-26.11,-56.14,0.5558,-1.1829,0.0331
22.812,-48.72,-29.75,-12.74,0.7012,-1.0633,-0.0346
22.828,-48.02,-34.3,28.98,0.7973,-0.8969,-0.0527
22.844,-44.8,-39.06,53.83,0.8247,-0.7695,-0.0556
22.861,-41.5099,-42.84,54.81,0.8271,-0.6622,-0.0092
22.878,-38.9199,-44.38,36.75,0.7759,-0.6309,0.0331
22.894,-37.31,-44.38,9.9399,0.7276,-0.6085,0.0551
22.912,-35.7,-43.75,-17.15,0.6939,-0.6182,0.0683
22.93,-32.69,-42.56,-29.54,0.6456,-0.6563,0.0897
22.946,-31.08,-41.23,-30.87,0.5856,-0.69,0.0941
22.964,-28.56,-39.69,-26.6,0.5236,-0.6958,0.1015
22.982,-24.57,-35.4199,-22.05,0.465,-0.6832,0.1185
22.999,-21.42,-32.2,-18.06,0.4357,-0.6617,0.101
23.014,-18.27,-29.4,-15.47,0.4392,-0.6509,0.0883
23.029,-14.28,-26.95,-12.88,0.4367,-0.6519,0.0658
23.046,-10.64,-24.5,-10.99,0.4348,-0.6836,0.039
23.064,-6.72,-21.6299,-10.57,0.4289,-0.7129,0.0039
23.082,-3.15,-18.97,-10.78,0.4294,-0.7363,-0.0214
23.1,0.07,-16.8,-11.13,0.4313,-0.7515,-0.0488
23.113,4.34,-15.54,-10.08,0.444,-0.7856,-0.0824
23.127,6.93,-14.56,-7.07,0.4611,-0.8232,-0.1112
23.142,10.29,-14.63,-1.33,0.5021,-0.8754,-0.1488
23.16,12.46,-16.03,10.57,0.5753,-0.9389,-0.1756
23.178,13.93,-21.6299,22.68,0.6666,-1.0057,-0.2137
23.193,14.07,-25.76,25.69,0.709,-1.0374,-0.2093
23.211,13.37,-29.82,21.07,0.6749,-1.034,-0.1912
23.229,13.65,-31.92,12.18,0.6222,-0.9633,-0.1825
23.245,16.31,-33.11,7.42,0.5753,-0.8671,-0.1864
23.263,19.81,-33.53,5.46,0.5421,-0.8008,-0.1986
23.281,30.03,-34.37,10.29,0.5333,-0.7139,-0.223
23.299,38.9199,-36.19,17.22,0.549,-0.7071,-0.2454
23.317,43.54,-40.39,23.87,0.5895,-0.7246,-0.2693
23.335,48.65,-44.94,23.94,0.6168,-0.7954,-0.2396
23.351,47.74,-49.84,16.03,0.6148,-0.8657,-0.2098
23.369,45.5,-53.48,-1.4,0.588,-0.9028,-0.182
23.387,38.64,-57.61,-21.91,0.5187,-0.9179,-0.1083
23.4,34.79,-58.59,-31.71,0.424,-0.9042,-0.0805
23.414,32.48,-59.08,-35.7,0.3967,-0.8823,-0.0907
23.429,31.64,-59.57,-31.71,0.3762,-0.8466,-0.1029
23.443,32.34,-59.85,-20.65,0.3469,-0.8091,-0.1176
23.471,35.7,-60.69,-5.7399,0.3489,-0.7471,-0.139
23.489,39.41,-62.16,-5.11,0.344,-0.6802,-0.1424
23.506,42.98,-63.63,-8.33,0.3523,-0.667,-0.1405
23.523,45.64,-66.22,-10.15,0.3689,-0.7124,-0.1464
23.538,46.9,-69.79,-7.7,0.3923,-0.7661,-0.1332
23.553,47.32,-73.5,-2.52,0.3928,-0.8042,-0.1224
23.568,46.06,-77.21,4.13,0.3806,-0.8564,-0.1176
23.583,44.1,-81.41,10.43,0.3723,-0.8886,-0.1083
23.598,40.39,-84.7,16.45,0.3586,-0.9379,-0.1078
23.614,36.19,-87.71,25.41,0.3596,-0.9896,-0.1098
23.632,33.04,-91.0,35.7,0.3718,-1.0189,-0.1122
23.65,26.88,-92.82,38.43,0.3713,-1.0316,-0.1615
23.667,22.47,-93.17,32.48,0.3337,-1.0521,-0.201
23.685,20.65,-91.21,27.93,0.2849,-1.0282,-0.2147
23.703,21.91,-87.64,32.9,0.2415,-0.9877,-0.2327
23.719,29.26,-84.7699,41.72,0.2371,-0.9735,-0.2469
23.737,37.1,-81.69,31.5,0.282,-0.9047,-0.1922
23.753,35.14,-80.85,5.25,0.3328,-1.0594,-0.2376
23.77,37.1,-80.36,-11.06,0.2884,-1.0043,-0.1576
23.786,40.6699,-83.93,-5.6,0.3879,-1.0111,-0.1337
23.8,42.98,-81.9,2.8,0.3147,-1.1204,-0.1776
23.816,44.03,-80.85,5.81,0.2225,-1.0013,-0.1151
23.834,45.64,-79.03,10.78,0.183,-1.0125,-0.0122
23.851,47.25,-77.07,14.21,0.2786,-0.9218,-0.0746
23.868,52.22,-72.8,30.87,0.2635,-0.955,0.0087
23.884,53.41,-71.33,47.11,0.1376,-0.9828,-0.1205
23.897,53.97,-70.91,56.21,0.1825,-1.0116,-0.0834
23.915,54.39,-69.65,57.82,0.1986,-0.9989,-0.0717
23.933,53.76,-68.04,48.58,0.1488,-0.9891,-0.0136
23.951,53.55,-68.46,54.95,0.2815,-0.8339,0.0858
23.967,53.9,-69.23,59.71,0.2244,-0.9198,-0.0039
23.985,53.9,-69.3,57.82,0.3089,-0.9564,0.1049
24.003,53.9,-68.88,45.08,0.0531,-0.8408,0.0844
24.019,52.0099,-70.49,28.91,0.242,-0.7744,0.1693
24.037,51.52,-73.43,8.89,0.3713,-0.9208,0.2552
24.055,49.07,-75.67,-5.11,0.1942,-0.8369,0.1576
24.072,48.86,-77.49,-10.85,0.1712,-0.9193,0.1444
24.086,48.09,-79.31,-7.91,0.202,-0.9042,0.1342
24.104,47.81,-82.11,-0.77,0.2483,-0.9701,0.1083
24.121,46.69,-82.32,5.67,0.1098,-1.0296,0.0805
24.138,42.49,-84.0,9.03,0.0829,-1.1048,0.0946
24.155,36.75,-84.8399,12.39,0.1259,-1.2078,0.0849
24.173,29.68,-86.73,19.81,0.0117,-1.3693,-0.0048
24.189,21.91,-88.3399,37.66,0.0702,-1.4874,0.0307
24.205,12.81,-94.01,60.97,0.1639,-1.5733,0.0317
24.221,2.73,-100.5199,77.56,0.1664,-1.5767,-0.0126
24.239,-5.7399,-107.17,87.22,0.0941,-1.4771,0.0004
24.256,-11.62,-113.26,87.78,0.1151,-1.3034,-0.0556
24.271,-11.2,-119.91,89.32,0.139,-1.1502,-0.1478
24.288,-5.25,-132.23,97.86,0.1888,-0.993,-0.0663
24.303,2.8,-143.99,102.76,0.2371,-0.8852,0.0073
24.321,9.1,-159.95,94.08,0.1678,-0.7949,0.0854
24.339,21.07,-174.58,75.04,0.1634,-0.7432,0.1834
24.357,28.35,-191.52,59.29,0.1498,-0.6729,0.203
24.375,35.84,-203.56,46.06,0.1161,-0.6695,0.2142
24.393,43.47,-219.45,38.29,0.0366,-0.6832,0.2566
24.409,46.9,-227.36,36.54,-0.161,-0.6832,0.2781
24.426,48.44,-231.35,45.78,-0.2923,-0.6978,0.2557
24.444,48.09,-232.47,63.0,-0.3552,-0.7163,0.2386
24.462,44.73,-232.33,75.25,-0.3786,-0.7495,0.1483
24.477,39.48,-229.46,68.39,-0.4982,-0.7442,0.1366
24.495,33.39,-222.04,43.2599,-0.6007,-0.7598,0.0854
24.512,29.05,-213.57,20.86,-0.6744,-0.7642,0.0531
24.529,27.09,-202.72,6.51,-0.751,-0.7969,0.1273
24.545,26.46,-189.7,9.03,-0.8647,-0.9642,0.203
24.563,24.36,-176.33,27.02,-0.852,-1.1492,0.3142
24.58,20.37,-161.56,48.44,-0.8193,-1.2312,0.3899
24.596,14.35,-152.32,61.04,-0.73,-1.3141,0.3586
24.614,6.72,-144.41,53.34,-0.5504,-1.3498,0.2361
24.631,-3.43,-127.12,-11.83,-0.4484,-1.3542,0.2034
24.647,-4.13,-102.48,-31.71,-0.2723,-1.3868,-0.0497
24.664,3.43,-88.83,-18.27,-0.261,-1.3849,-0.1551
24.682,10.29,-72.5899,4.76,-0.3874,-1.3551,-0.2283
24.695,16.59,-64.26,18.55,-0.4138,-1.2727,-0.2786
24.709,21.7,-59.01,35.7,-0.4343,-1.1829,-0.3357
24.725,25.9,-57.96,45.64,-0.3816,-1.077,-0.3289
24.742,33.53,-59.01,48.3,-0.2566,-0.932,-0.3225
24.758,40.6699,-64.54,42.4199,-0.0653,-0.7705,-0.3079
24.776,46.55,-72.38,22.82,0.0239,-0.7085,-0.2015
24.793,47.46,-78.33,-1.47,0.0414,-0.7407,-0.0614
24.809,45.29,-82.88,-18.55,0.0478,-0.8139,0.04
24.824,40.95,-85.61,-26.04,0.0219,-0.9125,0.0707
24.842,32.2,-86.17,-25.76,-0.0307,-1.0023,0.1629
24.86,20.79,-76.51,-34.58,-0.1088,-1.0667,0.2713
24.874,10.57,-64.75,-47.32,-0.1498,-1.0843,0.3513
24.892,-1.4,-40.95,-57.82,-0.1888,-1.0657,0.5455
24.908,-6.51,-15.96,-44.8,-0.3069,-1.0653,0.3801
24.926,-9.17,-4.27,-16.31,-0.1776,-0.9764,0.3318
24.942,-9.38,4.9699,3.64,-0.263,-0.9164,0.3045
24.958,-9.87,12.81,11.6899,-0.2405,-0.914,0.3137
24.975,-12.39,22.61,7.84,-0.2337,-0.933,0.2522
24.99,-16.59,29.26,-6.3,-0.264,-0.9447,0.2644
25.004,-23.24,39.62,-19.18,-0.3172,-0.9589,0.3738
25.02,-30.73,50.61,-33.39,-0.3035,-0.9501,0.2679
25.037,-38.64,60.27,-39.9,-0.2376,-0.9325,0.2313
25.054,-46.62,68.32,-40.04,-0.1776,-0.9394,0.223
25.07,-55.72,72.87,-38.57,-0.1156,-0.9608,0.2405
25.088,-65.73,77.21,-40.53,-0.0658,-0.9764,0.2952
25.106,-76.93,79.66,-46.69,-0.0522,-0.9569,0.2483
25.122,-87.01,81.41,-71.47,-0.0795,-0.9696,0.264
25.137,-94.36,83.16,-58.52,-0.1146,-0.9067,0.2986
25.155,-101.22,84.49,-57.82,-0.1424,-0.8823,0.2928
25.173,-103.46,86.38,-50.33,-0.1991,-0.7905,0.3411
25.188,-101.36,87.43,-35.0,-0.1815,-0.7656,0.3796
25.204,-96.39,87.5,-20.58,-0.1356,-0.7544,0.4855
25.222,-91.07,87.5,-6.37,-0.1551,-0.7949,0.5572
25.24,-80.92,87.29,0.84,-0.1551,-0.7856,0.7046
25.257,-70.98,85.12,5.39,-0.0775,-0.8476,0.7388
25.271,-62.58,82.04,7.77,-0.0268,-0.8749,0.7642
25.289,-51.03,77.49,6.09,-0.017,-0.8906,0.8593
25.305,-41.23,73.43,-1.33,-0.0746,-0.8935,0.852
25.323,-30.38,67.97,-8.54,-0.0361,-0.9057,0.7949
25.338,-18.97,63.14,-12.11,-0.0258,-0.9394,0.6944
25.355,-7.7,58.94,-16.03,-0.0775,-0.9345,0.6031
25.373,1.82,56.49,-16.87,-0.1122,-0.952,0.5221
25.391,10.92,55.37,-18.83,-0.0849,-1.0199,0.4133
25.409,20.3,53.41,-25.83,-0.0517,-1.0306,0.2747
25.425,24.64,52.43,-33.32,-0.0819,-1.0091,0.2005
25.441,28.28,54.53,-31.99,-0.0209,-1.0096,0.1283
25.458,30.24,49.98,-13.3,0.0605,-1.0272,0.2581
25.473,31.29,47.39,5.53,-0.0034,-1.0931,-0.0619
25.489,30.59,43.12,20.72,0.0346,-0.9799,0.0478
25.507,28.42,42.4199,28.98,-0.1293,-1.0501,0.0112
25.52,26.46,40.6,36.61,-0.0239,-0.9516,-0.057
25.534,23.73,38.29,44.1,0.0224,-1.0823,-0.1029
25.549,19.53,37.8,54.04,-0.0561,-1.0687,-0.0902
25.564,16.24,36.4,66.5,-0.0385,-1.0335,-0.1195
25.58,12.74,35.14,77.63,-0.02,-0.9613,-0.1956
25.608,6.58,31.22,87.85,-0.0087,-1.0516,-0.2444
25.624,1.82,31.99,90.0899,-0.1005,-1.1126,-0.2352
25.639,-3.57,31.36,92.82,-0.1029,-1.1214,-0.24
25.654,-7.35,30.1,99.33,-0.0268,-1.116,-0.2166
25.671,-11.34,26.88,102.2699,-0.0063,-1.1253,-0.1625
25.689,-19.04,23.94,94.99,-0.0253,-1.4459,-0.1327
25.707,-26.11,23.45,90.23,-0.0644,-1.4288,-0.019
25.722,-29.19,22.9599,90.23,-0.2127,-1.3581,-0.0048
25.739,-32.48,23.24,88.3399,-0.325,-1.301,0.0297
25.753,-32.97,24.7099,86.5199,-0.3728,-1.2351,0.0312
25.77,-29.61,24.43,85.33,-0.3362,-1.0838,-0.0004
25.787,-23.1,22.54,82.74,-0.2967,-0.9511,-0.0595
25.804,-15.61,18.2,72.5899,-0.261,-0.8945,-0.0727
25.82,-7.77,13.93,63.7,-0.201,-0.8052,-0.0785
25.838,0.07,5.88,55.3,-0.1532,-0.8012,-0.0907
25.856,8.61,-2.1,50.47,-0.1498,-0.852,-0.0453
25.872,13.93,-9.17,46.13,-0.1844,-0.9101,0.018
25.886,17.01,-14.56,39.48,-0.221,-0.9291,0.0326
25.903,20.3,-19.11,29.33,-0.263,-0.9267,0.0541
25.92,23.66,-23.66,23.17,-0.2625,-0.9315,0.0775
25.936,25.97,-25.69,19.25,-0.2971,-0.9764,0.1244
25.951,27.51,-26.88,13.79,-0.3552,-0.9886,0.1054
25.968,29.26,-27.37,4.48,-0.3572,-0.9564,0.1317
25.983,31.01,-27.23,-1.19,-0.4084,-0.9491,0.1195
25.999,34.09,-27.37,0.49,-0.406,-0.9208,0.1259
26.014,36.54,-28.84,5.67,-0.3386,-0.8754,0.0936
26.032,37.94,-29.05,5.81,-0.404,-0.9154,0.1259
26.05,35.77,-26.81,-0.07,-0.5607,-0.9223,0.1649
26.066,34.72,-23.73,-0.77,-0.5563,-0.8769,0.1522
26.084,34.58,-21.84,5.7399,-0.5011,-0.8662,0.1298
26.101,32.55,-21.6299,10.78,-0.447,-0.8447,0.1571
26.119,30.31,-23.66,9.87,-0.425,-0.9447,0.2059
26.134,27.79,-30.8,3.71,-0.0771,-0.9389,-0.1766
26.149,22.54,-32.9,-12.25,-0.1083,-0.9223,-0.0483
26.166,14.14,-40.6,-51.52,-0.0917,-0.831,0.0014
26.184,15.47,-41.44,-65.73,-0.3577,-0.7559,0.1112
26.202,20.44,-40.25,-21.84,-0.4396,-0.7071,0.5104
26.219,35.56,-37.59,27.58,-0.4845,-0.8583,0.1459
26.237,36.61,-32.34,4.27,-0.8535,-0.7354,0.3391
26.251,32.13,-20.16,-41.23,-0.8149,-0.7422,0.3679
26.266,25.2,-8.75,-78.05,-0.7939,-0.8613,0.325
26.283,20.65,1.05,-80.71,-0.7285,-0.8266,0.3089
26.298,22.47,7.63,-40.39,-0.6383,-0.8032,0.3093
26.314,26.95,12.53,0.98,-0.5167,-0.7466,0.3181
26.329,29.12,17.85,24.01,-0.383,-0.7149,0.3084
26.344,27.72,24.08,11.9,-0.4045,-0.7232,0.323
26.359,25.27,31.43,-14.84,-0.4343,-0.7285,0.3801
26.376,24.78,39.13,-25.69,-0.4157,-0.9193,0.2708
26.394,28.91,43.33,-23.87,-0.2264,-0.8896,0.2444
26.411,30.52,44.1,-35.35,-0.201,-0.7705,0.4855
26.429,32.97,51.1699,-52.78,-0.4855,-0.9677,0.5192
26.446,37.31,58.38,-43.68,-0.364,-0.7827,0.3606
26.461,41.23,62.3,-28.63,-0.5314,-0.9403,0.2679
26.479,48.72,63.0,-10.01,-0.3938,-0.9638,0.2337
26.494,52.5,63.14,-11.62,-0.2435,-0.7598,0.1078
26.511,53.41,59.29,-53.06,-0.1698,-0.7778,0.1058
26.525,48.23,52.08,-70.7699,0.08,-0.792,0.0375
26.543,37.1699,43.12,-128.94,0.1722,-0.8535,-0.0253
26.56,20.79,35.4199,-166.25,0.0736,-0.993,0.0131
26.576,10.08,23.73,-164.57,-0.0102,-1.2858,0.0897
26.592,-8.89,26.39,-133.14,-0.1288,-1.3112,0.1429
26.61,-30.52,15.89,-85.61,0.0336,-1.3956,0.1381
26.628,-54.11,12.74,-63.0,-0.0595,-1.3595,0.1454
26.642,-67.62,7.63,-55.02,0.1971,-1.2946,0.0829
26.659,-83.79,6.79,-55.16,0.1068,-1.2107,0.0317
26.676,-91.56,4.9699,-60.34,0.2132,-1.1858,-0.0122
26.694,-93.8,0.28,-74.48,0.4816,-1.1053,-0.1171
26.712,-90.23,2.17,-111.23,0.2113,-1.0472,-0.1922
26.729,-83.79,4.9699,-138.74,0.4333,-1.1624,-0.2225
26.745,-74.06,12.95,-153.72,0.1127,-1.2473,-0.1595
26.761,-65.1,18.83,-154.0,0.1366,-1.3224,-0.1893
26.777,-53.41,27.44,-148.47,0.0976,-1.3332,-0.1698
26.795,-36.82,40.04,-142.1,0.0551,-1.2834,-0.221
26.809,-21.7,51.87,-141.82,0.0322,-1.2971,-0.1771
26.827,-2.66,70.42,-153.51,0.0366,-1.2341,-0.1781
26.845,15.26,89.46,-167.86,-0.0844,-1.2151,-0.1307
26.863,31.57,112.21,-163.66,-0.04,-1.1902,-0.0771
26.881,43.96,129.71,-145.0399,0.0444,-1.0916,0.0478
26.897,52.5,144.27,-131.53,0.1639,-1.0648,0.1351
26.913,56.07,154.28,-128.94,0.2318,-0.9618,0.1673
26.928,55.65,159.95,-138.11,0.3181,-0.8896,0.2156
26.946,50.05,164.2899,-150.22,0.3894,-0.8261,0.2108
26.96,42.21,167.16,-156.45,0.3762,-0.8666,0.2215
26.978,27.51,164.64,-156.45,0.4157,-1.0282,0.2635
26.995,-1.89,161.35,-158.83,0.3196,-1.4195,0.2801
27.013,-39.2,154.7,-166.95,0.4294,-1.3722,0.2259
27.028,-58.52,143.71,-144.27,0.406,-0.752,0.0951
27.046,-74.41,134.75,-91.49,0.2347,-0.852,0.1864
27.063,-90.93,126.56,-37.1,0.3084,-0.9838,0.0971
27.078,-97.16,122.29,0.49,0.1854,-0.8759,0.0634
27.094,-103.67,122.92,5.11,0.1146,-0.8486,0.1122
27.109,-109.13,126.07,-28.98,-0.0029,-0.8481,0.1302
27.125,-113.89,131.32,-70.8399,0.0,-0.853,0.1615
27.139,-113.96,133.7,-101.36,-0.018,-0.8271,0.1537
27.156,-109.41,135.87,-110.88,-0.0034,-0.9657,0.241
27.174,-101.15,135.87,-94.99,0.0341,-1.0814,0.3289
27.191,-92.4,136.22,-68.39,0.0483,-1.1936,0.3869
27.209,-82.67,136.57,-33.6,0.0785,-1.2526,0.4343
27.226,-68.88,137.34,-1.19,0.0185,-1.2063,0.508
27.241,-57.47,138.95,25.97,0.0331,-1.1341,0.4962
27.259,-43.2599,140.77,41.5099,0.0312,-1.0687,0.484
27.277,-34.09,143.08,41.44,0.0131,-0.9603,0.4679
27.295,-24.29,145.0399,34.79,0.0488,-0.9071,0.4411
27.313,-20.58,144.2,22.75,0.1581,-0.8486,0.4172
27.329,-21.98,142.52,1.54,0.2049,-0.8276,0.424
27.346,-27.72,138.46,-24.01,0.2947,-0.8139,0.4104
27.364,-37.03,132.65,-51.24,0.3103,-0.8325,0.3928
27.379,-48.16,127.19,-62.51,0.3742,-0.874,0.3933
27.397,-61.46,119.14,-67.55,0.3923,-0.9125,0.3074
27.415,-73.78,112.49,-73.99,0.386,-0.9306,0.2376
27.431,-86.5199,106.61,-88.2,0.3664,-0.9184,0.2113
27.447,-99.47,101.5,-110.18,0.3386,-0.911,0.1747
27.465,-110.67,94.71,-131.39,0.3572,-0.9057,0.1527
27.483,-126.63,86.17,-151.06,0.3738,-0.8881,0.1351
27.499,-136.5,79.87,-164.08,0.3718,-0.8627,0.1224
27.517,-146.58,67.62,-169.33,0.3528,-0.853,0.1132
27.535,-156.59,57.82,-164.15,0.2708,-0.8642,0.0849
27.548,-160.9299,53.97,-150.64,0.1063,-0.9193,0.0971
27.562,-163.87,52.0099,-121.87,0.0448,-1.0057,0.1283
27.577,-166.46,50.82,-82.39,0.1146,-1.1404,0.183
27.595,-169.89,50.68,-37.73,0.1698,-1.1755,0.2532
27.612,-173.46,52.99,-6.72,0.2771,-1.1599,0.3259
27.629,-177.52,55.37,6.72,0.4128,-1.1902,0.4026
27.644,-181.16,57.82,4.13,0.5197,-1.1965,0.4352
27.658,-185.22,62.02,-9.66,0.5041,-1.199,0.4621
27.674,-188.65,67.83,-26.6,0.5045,-1.2131,0.485
27.691,-190.19,74.06,-33.6,0.5568,-1.1721,0.4982
27.705,-188.3,80.71,-36.33,0.5065,-1.1009,0.4928
27.719,-185.22,89.88,-35.84,0.4445,-1.0389,0.4953
27.737,-177.52,101.01,-27.44,0.4216,-0.9672,0.4689
27.767,-152.6,135.17,-6.44,0.2928,-0.8164,0.5055
27.785,-134.5399,157.64,10.29,0.2674,-0.7588,0.5402
27.8,-121.38,174.72,22.68,0.2464,-0.7588,0.5875
27.818,-106.61,196.0,33.11,0.2088,-0.7895,0.6407
27.836,-96.88,214.13,45.15,0.1747,-0.8217,0.6944
27.853,-91.21,227.08,53.41,0.1322,-0.9794,0.7129
27.871,-87.22,241.22,64.05,-0.018,-0.8549,0.7485
27.889,-85.19,252.0,87.43,-0.2034,-0.8662,0.7607
27.902,-85.12,259.42,116.97,-0.2576,-0.9272,0.7817
27.92,-87.99,265.8599,154.49,-0.2796,-1.0492,0.8178
27.938,-94.85,269.01,168.14,-0.2449,-1.1355,0.8027
27.954,-103.46,266.91,155.19,-0.161,-1.1399,0.7066
27.971,-119.0,258.16,123.55,-0.1234,-1.1209,0.5758
27.989,-133.7,242.9,85.4,-0.2093,-1.0994,0.3689
28.005,-145.88,230.37,57.96,-0.3806,-1.237,0.3079
28.021,-167.3,207.97,49.0,0.0683,-1.3698,-0.1278
28.037,-173.39,169.6799,81.48,0.0146,-1.2819,-0.079
28.053,-178.71,137.06,116.06,-0.2313,-1.2526,-0.1078
28.068,-181.3,110.6,139.44,-0.3552,-1.2605,-0.2703
28.085,-186.06,75.95,144.55,-0.3552,-1.1965,-0.4221
28.099,-191.59,52.92,139.72,-0.3284,-1.1131,-0.6641
28.117,-195.58,10.29,122.01,-0.362,-0.9828,-1.0121
28.135,-197.82,-32.41,94.5,-0.3635,-0.8447,-1.2273
28.153,-200.62,-76.65,52.0099,-0.3952,-1.0443,-1.3512
28.17,-203.49,-133.7,20.09,-0.2381,-1.0247,-1.4615
28.186,-203.98,-175.28,0.42,-0.3215,-1.1873,-1.2936
28.204,-199.5,-236.11,-7.35,-0.1,-1.1516,-1.6679
28.222,-194.88,-323.19,17.08,-0.0907,-1.4898,-1.9368
28.235,-188.23,-349.5799,46.06,-0.301,-1.7533,-1.8812
28.249,-183.75,-394.8,89.04,0.0775,-1.8944,-2.2618
28.266,-172.2,-443.73,155.89,-0.2176,-1.6328,-2.4009
28.282,-160.02,-491.05,202.16,0.241,-1.3659,-2.3497
28.3,-160.58,-545.65,191.17,0.7002,-1.2209,-2.1506
28.318,-174.3,-594.7199,98.07,0.6944,-1.1638,-1.5791
28.335,-182.0,-624.96,-3.36,0.5987,-1.0848,-1.1087
28.35,-217.42,-72.73,-576.59,6.7012,0.8881,-0.3372
28.367,-88.48,-239.05,-511.56,8.0715,-0.8818,-2.0852
28.381,15.12,-234.36,-271.53,-1.6221,-0.5563,-1.4176
28.399,123.55,-482.37,-108.29,-1.9959,-0.2688,-0.9413
28.416,156.73,-490.49,-23.94,1.9612,-0.1478,-0.2103
28.429,176.96,-409.3599,-11.76,-0.1561,-0.119,-0.4094
28.447,178.08,-367.99,-82.53,0.3991,-0.3757,-0.3713
28.46,185.57,-349.51,-159.81,-0.9442,-0.5411,-0.4294
28.474,190.33,-347.06,-216.51,-0.1683,-0.708,-0.3191
28.491,201.46,-306.1099,-279.8599,-0.183,-0.691,-0.2791
28.506,220.08,-276.78,-314.16,-0.0614,-0.7212,-0.1966
28.534,254.31,-205.17,-296.24,0.0985,-0.7427,-0.0165
28.552,276.71,-193.97,-242.34,0.1742,-0.7603,0.1005
28.57,290.99,-180.39,-178.36,0.1937,-0.7412,0.1678
28.586,301.98,-169.05,-116.97,0.1278,-0.7285,0.1756
28.604,307.02,-162.05,-74.3399,0.1756,-0.6544,0.2069
28.621,307.02,-157.08,-58.31,0.242,-0.607,0.2318
28.639,303.73,-153.02,-58.59,0.3406,-0.6275,0.2937
28.657,296.73,-150.36,-70.91,0.4001,-0.7334,0.3445
28.675,284.13,-145.32,-91.0,0.3747,-0.6817,0.3264
28.692,273.42,-141.19,-106.4,0.4377,-0.7246,0.4245
28.707,258.37,-135.17,-118.16,0.4113,-0.81,0.4474
28.723,246.19,-129.36,-121.66,0.4528,-0.8296,0.507
28.737,228.9,-125.93,-114.87,0.4831,-0.8447,0.526
28.755,209.23,-122.5,-84.7699,0.5055,-0.7871,0.4875
28.772,192.2899,-121.31,-48.37,0.5055,-0.6505,0.4172
28.788,172.83,-121.59,-10.71,0.5612,-0.6768,0.426
28.804,150.08,-122.22,22.33,0.5616,-0.6534,0.3752
28.822,127.54,-120.54,44.52,0.5475,-0.6588,0.3679
28.835,100.24,-116.97,58.73,0.5045,-0.5641,0.3459
28.851,73.22,-112.56,70.42,0.5729,-0.5182,0.3484
28.867,49.77,-107.1,87.15,0.6539,-0.3972,0.3298
28.882,31.43,-102.69,107.52,0.8139,-0.3186,0.3459
28.896,16.17,-95.2699,122.57,0.7808,-0.2132,0.2806
28.912,0.98,-81.62,131.81,0.7803,-0.1991,0.2884
28.928,-13.02,-66.08,138.1799,0.8559,-0.16,0.3479
28.943,-21.0,-49.49,141.26,0.8823,-0.0048,0.3484
28.961,-28.0,-26.74,132.3,0.9081,0.0161,0.364
28.977,-39.62,-9.87,111.58,0.9374,-0.1024,0.4606
29.006,-63.84,14.77,77.42,1.098,-0.2718,0.5548
29.022,-78.4,19.74,68.11,1.1804,-0.3416,0.6056
29.037,-90.93,19.81,66.92,1.28,-0.4099,0.67
29.055,-106.12,13.72,70.49,1.3707,-0.3825,0.7124
29.073,-117.88,5.25,72.8,1.3507,-0.4089,0.7466
29.088,-130.62,-1.82,72.94,1.3746,-0.4928,0.8037
29.104,-142.73,-12.11,76.23,1.4654,-0.5519,0.8266
29.118,-150.4299,-22.33,82.46,1.5459,-0.5748,0.7881
29.134,-155.47,3.01,14.63,1.8085,-0.0849,0.8359
29.149,-109.34,-48.44,-71.96,2.2189,-0.0673,0.7383
29.164,-64.26,-36.47,-92.54,1.2995,0.0551,0.628
29.18,-40.88,-40.46,-172.13,1.1082,0.0497,0.6597
29.194,-41.58,-30.24,-245.77,0.5724,-0.2137,0.5914
29.212,-66.29,-21.6299,-304.78,1.0789,-0.3557,0.363
29.23,-51.03,38.0099,-20.51,0.7119,-0.385,0.3869
29.248,-49.14,37.94,32.13,1.0223,-0.1122,0.4689
29.266,-46.13,30.1,21.28,0.9559,0.0717,0.5182
29.284,-42.14,19.81,-9.8,1.1111,0.1498,0.3538
29.299,-35.14,14.63,-38.08,1.0086,0.3396,0.3006
29.317,-27.86,7.28,-62.3,1.0125,0.2142,0.305
29.335,-20.51,3.29,-70.28,0.9159,0.1322,0.2884
29.353,-12.95,2.45,-67.2699,0.7442,0.1273,0.3445
29.371,-3.5,1.96,-57.75,0.8047,0.1629,0.2796
29.388,8.26,4.13,-57.4,0.7739,-0.0419,0.3455
29.404,23.03,10.64,-55.3,0.4743,0.304,0.4289
29.419,32.13,7.49,-65.17,0.7295,0.0595,0.3825
29.437,43.19,6.3,-70.49,0.7095,0.0068,0.4587
29.455,54.25,7.7,-73.99,0.7041,-0.0585,0.4704
29.472,63.98,12.74,-70.63,0.65,-0.1151,0.5163
29.486,72.8,20.23,-61.53,0.6871,-0.078,0.5167
29.5,85.33,27.51,-41.23,0.6944,0.9252,0.7227
29.514,104.3,37.66,-20.58,0.8593,-0.1176,0.547
29.528,112.14,42.56,7.35,1.2444,-0.201,0.5797
29.542,113.12,39.41,36.47,1.5484,-0.4616,0.5646
29.556,109.62,32.06,53.97,1.6411,-0.5387,0.5104
29.571,100.03,24.57,65.73,1.3078,-0.7588,0.4928
29.586,86.03,22.61,63.84,1.0218,-0.688,0.5353
29.603,66.99,22.12,40.6,0.7905,-0.6339,0.5651
29.617,45.99,21.56,5.6,0.8203,-0.8217,0.6158
29.631,25.48,23.45,-27.23,0.8662,-0.7881,0.6563
29.662,-24.15,19.74,-43.12,0.8686,-0.6573,0.6866
29.68,-42.49,20.51,-35.07,0.8086,-0.2918,0.6402
29.698,-58.31,18.27,-10.29,0.8564,-0.445,0.5397
29.715,-72.24,16.59,18.83,0.9882,-0.201,0.5641
29.731,-77.7699,15.75,42.21,1.0257,-0.039,0.6212
29.746,-80.99,17.64,51.73,1.0472,0.0156,0.648
29.761,-82.04,18.83,48.02,1.094,0.0619,0.6763
29.778,-83.23,20.72,28.42,1.0448,0.0483,0.7198
29.794,-83.51,23.03,2.24,0.9062,0.1107,0.6763
29.809,-81.55,24.01,-21.42,0.8784,0.1839,0.5807
29.827,-76.93,24.08,-48.79,0.8008,0.1995,0.4504
29.845,-71.4,21.56,-61.67,0.8174,0.1722,0.3894
29.858,-68.95,16.17,-69.51,0.9115,0.2176,0.3923
29.876,-62.09,9.45,-70.56,0.8305,0.4104,0.3323
29.893,-59.01,2.03,-71.75,0.7734,0.2942,0.2566
29.908,-56.56,-1.4,-69.58,0.688,0.2679,0.244
29.925,-56.21,-5.7399,-56.21,0.7324,0.1073,0.301
29.941,-52.85,-3.5,-24.36,0.6631,0.1439,0.3513
29.958,-49.0,-4.34,10.22,0.79,0.1117,0.4069
29.976,-46.62,-2.31,42.77,0.8378,-0.0863,0.4699
29.99,-45.22,-4.34,61.11,0.7905,-0.2547,0.5743
30.007,-43.2599,-2.8699,71.33,0.7964,-0.2669,0.6109
30.025,-49.28,-0.98,66.43,0.7612,-0.3928,0.667
30.041,-61.11,0.56,41.02,0.7129,-0.4026,0.7661
30.059,-77.98,11.97,-13.65,0.5665,-0.3572,0.893
30.076,-86.66,18.55,-24.57,0.6597,-0.4748,0.8037
30.091,-88.06,18.55,20.09,0.6788,-0.5816,0.7666
30.109,-87.29,18.83,106.61,0.5973,-0.5899,0.8681
30.127,-85.33,26.74,170.59,0.4601,-0.5895,0.9135
30.14,-83.86,37.59,197.89,0.4123,-0.5758,0.9418
30.154,-85.96,48.44,200.48,0.4596,-0.5021,0.9735
30.17,-86.8,57.47,178.92,0.5616,-0.4962,1.0218
30.187,-86.66,64.33,140.84,0.7768,-0.4689,0.9857
30.201,-84.7699,67.13,110.25,0.9472,-0.4592,0.8681
30.216,-83.0899,66.85,81.3399,1.0443,-0.4714,0.83
30.23,-81.3399,64.33,58.38,1.1243,-0.5572,0.891
30.262,-78.33,48.37,52.08,1.3063,-0.6261,0.9037
30.275,-71.54,39.34,66.78,1.4313,-0.5363,0.7861
30.289,-62.72,27.65,89.39,1.4449,-0.3581,0.6758
30.304,-51.59,14.91,113.47,1.4283,-0.2771,0.5123
30.318,-38.64,2.94,127.61,1.3219,-0.1971,0.3376
30.334,-26.74,-6.51,126.63,1.1692,-0.1351,0.1937
30.352,-13.37,-14.07,105.7,0.9262,-0.0605,0.1278
30.366,-2.38,-17.99,79.45,0.6783,-0.0834,0.1571
30.382,5.39,-19.74,48.3,0.6026,-0.14,0.2342
30.397,10.01,-21.2099,28.98,0.5343,-0.2391,0.2869
30.411,13.37,-22.89,19.18,0.5065,-0.3308,0.3323
30.427,16.59,-24.22,17.15,0.4787,-0.4026,0.3679
30.442,18.2,-26.95,18.27,0.5265,-0.4928,0.3703
30.457,18.55,-29.82,18.69,0.5421,-0.5353,0.3689
30.472,18.34,-32.34,16.87,0.5299,-0.5934,0.4177
30.486,17.5,-35.0,13.65,0.5172,-0.6441,0.4606
30.502,15.75,-36.68,8.1899,0.5094,-0.6929,0.5001
30.517,13.86,-38.15,1.4,0.4899,-0.7188,0.5397
30.532,11.6899,-38.71,-5.6,0.4723,-0.7207,0.5529
30.546,10.92,-39.69,-9.9399,0.4601,-0.6758,0.5734
30.562,12.53,-39.7599,-7.28,0.4138,-0.6436,0.5309
30.577,14.77,-39.69,3.15,0.445,-0.65,0.4582
30.592,17.99,-40.88,15.54,0.4777,-0.6905,0.3816
30.607,20.51,-42.0,28.56,0.4875,-0.7173,0.3669
30.622,22.61,-42.49,42.49,0.465,-0.751,0.3591
30.636,23.87,-42.77,51.87,0.4655,-0.7871,0.3464
30.652,24.08,-42.35,57.82,0.4455,-0.8174,0.3098
30.669,23.24,-41.02,61.95,0.425,-0.8754,0.3006
30.684,20.02,-39.55,64.89,0.4445,-0.9725,0.305
30.701,15.61,-38.08,69.86,0.4318,-1.0267,0.3455
30.716,10.57,-36.4,76.0899,0.4123,-1.1038,0.3625
30.732,4.55,-35.4199,86.8,0.4572,-1.1033,0.3762
30.748,-2.66,-35.14,95.83,0.4914,-1.137,0.4143
30.762,-10.71,-34.5099,95.97,0.4914,-1.1516,0.4806
30.79,-35.21,-27.37,69.51,0.3933,-1.2483,0.5655
30.806,-50.54,-20.93,48.72,0.3835,-1.2121,0.5441
30.824,-63.35,-13.02,33.81,0.3977,-1.1248,0.5109
30.841,-74.06,-5.18,26.6,0.385,-1.0213,0.5343
30.858,-82.74,2.8699,22.82,0.3879,-0.8847,0.4665
30.873,-85.96,9.66,22.61,0.3864,-0.7656,0.3864
30.889,-87.08,17.36,23.73,0.4006,-0.6841,0.3298
30.905,-85.82,24.64,26.46,0.4074,-0.6134,0.3035
30.92,-83.3,30.31,30.31,0.4148,-0.569,0.2942
30.938,-79.38,36.89,32.2,0.4328,-0.546,0.305
30.955,-76.0199,41.5099,30.45,0.4431,-0.5372,0.3186
30.971,-73.08,44.59,25.2,0.4665,-0.5709,0.3035
30.987,-70.49,46.41,20.16,0.4958,-0.6231,0.3215
31.001,-69.23,46.69,16.59,0.5348,-0.6997,0.3586
31.019,-68.53,45.64,8.82,0.5729,-0.7681,0.3742
31.036,-67.62,44.38,-0.56,0.5524,-0.7969,0.3952
31.052,-65.45,43.33,-10.71,0.5426,-0.7949,0.4143
31.07,-61.25,42.63,-22.19,0.508,-0.7837,0.3913
31.088,-57.05,42.63,-30.52,0.4699,-0.8081,0.3606
31.106,-50.68,42.77,-34.58,0.4499,-0.9618,0.3054
31.122,-47.18,42.7,-34.23,0.4689,-1.1111,0.2893
31.137,-46.27,42.21,-33.46,0.4792,-1.2531,0.3103
31.152,-47.25,42.0,-35.56,0.4416,-1.2961,0.3562
31.166,-48.86,42.91,-41.09,0.3908,-1.3073,0.3723
31.184,-50.89,45.15,-48.93,0.3513,-1.281,0.3733
31.201,-51.52,48.16,-51.24,0.3089,-1.1633,0.345
31.218,-50.12,51.45,-47.46,0.2679,-1.0555,0.3318
31.234,-47.39,54.32,-35.7,0.2766,-0.9608,0.323
31.251,-43.61,55.37,-12.67,0.3264,-0.8871,0.301
31.269,-38.85,53.41,10.71,0.423,-0.8217,0.2537
31.287,-35.98,48.79,33.53,0.5114,-0.7456,0.2176
31.303,-32.97,44.1699,46.48,0.5919,-0.6983,0.1532
31.321,-33.6699,37.59,50.75,0.6451,-0.6851,0.0014
31.339,-37.24,31.99,43.05,0.6309,-0.7041,0.079
31.354,-42.91,28.56,29.12,0.6051,-0.7329,0.0117
31.369,-47.88,25.9,11.62,0.5782,-0.7851,-0.0746
31.387,-53.55,22.54,0.07,0.5846,-0.9096,-0.1224
31.405,-58.94,18.1299,-7.56,0.6392,-1.1277,-0.0917
31.423,-62.3,13.58,-17.36,0.5841,-1.1999,-0.0424
31.441,-60.41,7.28,-30.52,0.5299,-1.0936,0.0126
31.458,-49.14,0.98,-32.62,0.549,-0.9852,0.0941
31.474,-33.25,-6.16,-26.6,0.5621,-0.9662,0.142
31.489,-18.27,-11.76,-18.27,0.5436,-0.9847,0.2283
31.507,2.1,-18.27,-13.79,0.507,-0.9437,0.3489
31.523,35.77,-22.47,-14.91,0.4406,-0.8945,0.3957
31.539,35.49,-25.69,-23.87,0.446,-0.9764,0.4035
31.553,48.23,-28.77,-31.64,0.5016,-0.9491,0.4108
31.57,62.02,-32.27,-40.04,0.5216,-0.9101,0.3962
31.586,76.0899,-34.44,-49.28,0.4962,-0.85,0.4143
31.601,90.58,-35.63,-54.53,0.5031,-0.8403,0.3967
31.619,105.63,-36.75,-51.1,0.5143,-0.8252,0.3811
31.636,122.78,-37.1,-42.84,0.487,-0.79,0.3664
31.653,136.64,-36.68,-35.49,0.4601,-0.772,0.3479
31.668,146.9299,-35.28,-30.94,0.4201,-0.7681,0.3542
31.684,157.22,-33.6,-26.81,0.4108,-0.7954,0.3176
31.702,163.73,-33.18,-19.74,0.4655,-0.833,0.2727
31.715,168.49,-33.53,-14.56,0.4738,-0.8852,0.2093
31.729,170.31,-34.93,-10.08,0.4987,-0.912,0.179
31.745,168.98,-35.7,-8.26,0.4797,-0.9486,0.1093
31.759,164.22,-36.68,-7.77,0.5241,-0.975,0.0663
31.776,154.91,-39.69,-5.67,0.6109,-1.0355,0.0527
31.792,143.08,-45.57,-0.28,0.7764,-1.0526,0.02
31.807,131.39,-53.27,6.44,0.9491,-1.013,-0.0136
31.821,117.88,-61.25,5.04,0.9608,-0.974,0.0527
31.835,103.04,-66.01,-6.93,0.7803,-0.9237,0.0483
31.852,83.16,-60.13,-46.83,0.6963,-0.8774,-0.018
31.867,66.99,-45.78,-103.95,0.5958,-0.6929,-0.0619
31.881,46.48,-27.86,-164.64,0.4104,-0.6827,-0.1249
31.895,32.83,-11.13,-173.46,0.3128,-0.7193,-0.1732
31.912,22.05,4.83,-154.98,0.2659,-0.7056,-0.1947
31.928,12.81,19.25,-110.88,0.223,-0.79,-0.1854
31.942,4.83,29.05,-43.75,0.201,-0.8701,-0.1273
31.957,-2.8,37.45,-9.38,0.201,-0.9574,-0.0522
31.972,-14.84,44.45,47.88,0.3152,-1.0321,0.0678
31.986,-26.46,50.4,85.96,0.5197,-1.094,0.1903
32.002,-41.16,53.9,113.12,0.6178,-1.0238,0.2971
32.017,-52.78,61.25,117.67,0.5216,-0.8915,0.2786
32.032,-67.2699,70.07,103.32,0.4333,-0.8349,0.2903
32.046,-84.56,80.22,70.98,0.3616,-0.7856,0.2664
32.077,-113.75,96.74,12.88,0.4377,-0.7851,0.3054
32.095,-131.1799,99.19,-6.09,0.629,-0.8959,0.4782
32.113,-139.7899,97.58,-24.7099,0.5197,-0.8276,0.5221
32.131,-138.32,92.47,-31.29,0.6026,-0.7178,0.4767
32.148,-133.49,85.75,-40.11,0.5929,-0.8525,0.5904
32.163,-123.83,81.62,-51.31,0.444,-0.8398,0.6919
32.178,-110.67,77.21,-59.15,0.4455,-0.8369,0.7212
32.194,-91.7,68.67,-59.43,0.4797,-0.8383,0.7666
32.212,-71.47,56.07,-47.32,0.4894,-0.8203,0.7705
32.225,-46.2,44.8,-31.78,0.4811,-0.8217,0.7695
32.239,-24.7099,34.86,-17.43,0.4831,-0.8461,0.7754
32.256,-2.73,21.49,-10.78,0.4631,-0.8466,0.7856
32.271,13.23,8.89,-13.51,0.4284,-0.8349,0.7983
32.287,29.47,-2.45,-20.37,0.4045,-0.813,0.7988
32.302,41.93,-11.6899,-22.89,0.4128,-0.7973,0.8017
32.319,56.56,-20.79,-18.83,0.4348,-0.7627,0.7754
32.336,72.17,-32.41,-12.11,0.446,-0.7495,0.7612
32.353,84.0,-42.07,-7.42,0.427,-0.73,0.728
32.369,93.8,-48.16,-3.92,0.423,-0.7256,0.6875
32.383,100.45,-53.62,-2.17,0.4157,-0.7183,0.649
32.41,107.38,-59.08,-3.85,0.4104,-0.7193,0.5646
32.426,107.45,-61.18,-11.6899,0.4479,-0.691,0.5202
32.442,103.67,-57.05,-43.61,0.4157,-0.5465,0.5246
32.46,99.19,-48.44,-120.54,0.568,-0.3674,0.467
32.477,72.5199,-25.2,-226.17,1.0462,0.6422,0.5724
32.495,66.01,1.89,-320.6,0.7817,-0.2039,0.2337
32.512,29.61,25.06,-375.76,0.4865,-0.1361,0.0692
32.53,20.02,26.53,-367.43,1.0062,-1.0282,0.3425
32.546,4.62,14.42,-337.4,1.2922,-0.7134,0.586
32.562,12.04,16.03,-245.98,0.9042,-0.6573,0.6514
32.58,21.98,20.51,-130.06,0.6202,-0.3596,0.65
32.598,34.58,26.67,-29.96,0.4894,-0.1224,0.6129
32.614,43.47,35.7,45.57,0.3064,-0.0966,0.6295
32.631,49.07,44.87,93.94,0.3162,-0.099,0.6368
32.649,51.45,54.46,111.44,0.3401,-0.2088,0.6431
32.666,51.31,62.86,112.49,0.3616,-0.2464,0.6656
32.684,50.2599,71.19,100.03,0.3791,-0.2727,0.7012
32.701,47.81,80.08,81.97,0.4372,-0.3108,0.7085
32.718,44.73,87.57,60.13,0.4162,-0.3435,0.728
32.734,41.93,96.46,38.71,0.3733,-0.3274,0.7978
32.749,40.04,104.0899,24.5,0.365,-0.325,0.8178
32.767,38.9199,115.64,15.82,0.2884,-0.3069,0.8281
32.782,39.2,123.9,16.52,0.3001,-0.282,0.8837
32.795,40.04,132.37,17.92,0.2576,-0.22,0.9081
32.811,41.09,141.19,18.9,0.2186,-0.1717,0.9613
32.827,41.93,150.78,16.59,0.2142,-0.1385,0.9808
32.842,41.09,158.13,12.32,0.2425,-0.2191,1.0472
32.856,37.8,164.92,8.33,0.3069,-0.3772,1.2468
32.872,31.99,168.35,8.89,0.386,-0.4348,1.3683
32.887,26.88,169.96,13.09,0.4733,-0.4567,1.3556
32.901,21.77,168.84,16.87,0.5904,-0.5128,1.3014
32.916,15.05,166.25,17.5,0.5675,-0.5128,1.3
32.932,8.89,162.26,16.52,0.5724,-0.4967,1.3088
32.947,3.64,157.64,13.93,0.5831,-0.5128,1.2814
32.961,-1.54,152.67,9.87,0.5621,-0.5109,1.2531
32.989,-11.76,141.4,-5.6,0.526,-0.4631,1.2346
33.003,-16.8,135.8,-19.32,0.3982,-0.5446,1.2712
33.019,-22.61,129.22,-36.89,0.4396,-0.4143,1.219
33.037,-28.98,122.85,-54.25,0.2747,-0.5748,1.2009
33.055,-35.63,114.73,-62.72,0.4616,-0.6197,1.1814
33.073,-45.15,107.31,-70.63,0.301,-0.4162,1.1214
33.091,-47.18,94.64,-68.67,0.2796,-0.488,1.0638
33.106,-49.49,91.63,-67.55,-0.0092,-0.569,1.0477
33.123,-48.72,77.8399,-50.19,0.1595,-0.4455,1.0033
33.138,-43.33,67.3399,-46.97,0.1112,-0.3181,0.9882
33.153,-41.65,64.68,-45.9199,0.0619,-0.2405,1.0028
33.168,-42.28,56.21,-33.88,0.0234,-0.2415,1.0008
33.183,-33.04,50.54,-28.28,-0.1058,-0.3474,0.9984
33.198,-31.43,48.02,-30.03,-0.0692,-0.2,0.9764
33.214,-27.44,43.33,-27.79,-0.1171,-0.2371,0.9725
33.23,-25.34,37.59,-27.65,-0.0419,-0.2196,0.9345
33.248,-19.81,34.3,-33.11,-0.3045,-0.3245,0.9662
33.266,-18.06,30.8,-36.61,-0.2117,-0.2942,0.9657
33.283,-13.72,25.27,-35.98,-0.1346,-0.2381,0.993
33.3,-8.75,20.86,-28.28,-0.0849,-0.2991,1.035
33.318,-4.69,15.19,-13.93,-0.0278,-0.3157,1.0438
33.334,-0.98,8.96,-4.76,-0.0024,-0.3367,1.0326
33.35,1.96,1.89,1.54,0.0317,-0.3596,1.0165
33.368,4.2,-5.39,3.15,0.0429,-0.3694,1.014
33.386,5.67,-13.58,0.28,0.0161,-0.4026,1.0135
33.402,5.88,-19.8799,-5.32,-0.0219,-0.4235,1.0189
33.42,5.88,-25.9,-12.6,-0.061,-0.4279,1.0091
33.438,6.51,-29.82,-17.15,-0.1073,-0.4094,0.9701
33.454,7.49,-32.41,-17.22,-0.1732,-0.4104,0.9457
33.472,8.82,-34.09,-12.81,-0.2049,-0.4074,0.9272
33.49,9.9399,-34.44,-4.62,-0.2278,-0.4157,0.9291
33.505,10.08,-34.23,1.26,-0.2376,-0.4333,0.9218
33.521,9.31,-33.25,7.14,-0.2532,-0.4455,0.9223
33.539,7.49,-31.5,11.9,-0.2596,-0.4538,0.9545
33.555,5.18,-29.68,14.49,-0.2601,-0.4489,0.972
33.571,2.38,-27.3,14.56,-0.2527,-0.4392,0.974
33.587,-0.28,-25.1299,13.79,-0.2405,-0.4382,0.9779
33.603,-3.08,-23.52,12.6,-0.2322,-0.4304,0.9764
33.618,-5.95,-21.6299,11.4799,-0.222,-0.4435,0.9745
33.636,-7.63,-20.37,10.5,-0.2132,-0.4406,0.9667
33.65,-9.8,-19.53,10.43,-0.1917,-0.4265,0.9623
33.664,-10.85,-19.04,11.2,-0.1722,-0.4211,0.9667
33.682,-11.34,-19.25,13.93,-0.1454,-0.4094,0.953
33.7,-10.85,-20.09,18.2,-0.0995,-0.4001,0.9179
33.717,-10.08,-21.6299,21.07,-0.0507,-0.3884,0.8866
33.731,-9.24,-23.17,21.91,-0.0283,-0.3947,0.8735
33.747,-9.03,-25.2,20.65,0.0009,-0.4108,0.8579
33.763,-9.03,-27.79,17.7099,0.0424,-0.4182,0.8618
33.78,-9.1,-30.66,15.96,0.0732,-0.4143,0.8949
33.797,-8.96,-33.6699,16.52,0.0868,-0.4157,0.9042
33.815,-8.54,-37.1,19.4599,0.0829,-0.4289,0.893
33.833,-7.98,-40.04,23.31,0.0834,-0.4265,0.8876
33.849,-7.7,-42.63,26.88,0.079,-0.4348,0.8984
33.866,-7.84,-44.66,29.4,0.0732,-0.4284,0.9262
33.88,-8.26,-45.9199,29.05,0.0692,-0.426,0.9394
33.896,-9.24,-47.18,27.44,0.06,-0.4479,0.9613
33.912,-10.43,-47.95,26.53,0.0488,-0.4406,0.9838
33.929,-11.34,-48.79,25.76,0.061,-0.4474,0.9696
33.945,-12.04,-49.98,25.62,0.08,-0.4435,0.9642
33.961,-12.46,-50.96,25.55,0.0956,-0.4352,0.9652
33.977,-12.88,-52.0099,25.2,0.0961,-0.4289,0.9677
33.993,-13.16,-52.99,24.08,0.1039,-0.4167,0.976
34.008,-13.16,-53.62,23.1,0.1054,-0.4089,0.9813
34.024,-12.95,-54.18,22.33,0.0971,-0.3874,0.993
34.039,-12.04,-54.32,22.54,0.1019,-0.3869,0.9911
34.057,-10.78,-54.6,23.03,0.1083,-0.3459,0.9813
34.075,-8.61,-54.6,24.15,0.1176,-0.3596,0.975
34.092,-6.58,-54.32,24.5,0.1054,-0.3279,0.9916
34.106,-4.27,-53.48,24.92,0.1049,-0.3435,0.9901
34.124,-0.63,-53.2,23.52,0.1068,-0.3015,0.9877
34.141,3.57,-52.29,20.58,0.119,-0.2615,0.9657
34.154,7.91,-51.8,21.07,0.1356,-0.244,0.955
34.17,12.67,-51.52,25.48,0.139,-0.2674,0.9564
34.183,17.78,-51.1699,31.08,0.1376,-0.2405,0.9701
34.214,27.44,-50.75,44.31,0.16,-0.2693,0.9916
34.232,35.77,-50.4,49.35,0.179,-0.2381,0.9984
34.247,40.46,-50.2599,50.54,0.1927,-0.241,1.0125
34.263,45.08,-49.77,49.35,0.201,-0.263,1.055
34.278,48.72,-49.14,46.83,0.2196,-0.2615,1.0736
34.293,53.06,-48.3,44.1,0.2152,-0.242,1.0721
34.308,56.98,-46.83,41.65,0.2,-0.2327,1.076
34.323,61.81,-44.59,40.18,0.1849,-0.2327,1.0745
34.339,65.94,-41.58,37.59,0.1537,-0.2015,1.1019
34.354,70.49,-38.08,36.2599,0.16,-0.2215,1.1082
34.372,74.55,-33.81,37.31,0.1761,-0.2391,1.1228
34.39,78.68,-29.61,35.28,0.1693,-0.1976,1.1082
34.406,81.76,-25.2,29.89,0.1908,-0.1932,1.0955
34.424,84.35,-19.11,20.72,0.1712,-0.202,1.0882
34.441,85.47,-14.21,14.14,0.2152,-0.2396,1.0614
34.456,85.26,-11.34,11.9,0.2762,-0.2776,1.0887
34.47,84.35,-9.03,12.95,0.3479,-0.3093,1.1014
34.488,81.55,-7.28,17.08,0.4304,-0.3889,1.1121
34.504,78.05,-7.28,22.47,0.5324,-0.4421,1.1516
34.519,73.15,-8.12,24.92,0.6036,-0.4431,1.2082
34.537,66.64,-9.66,21.0,0.6397,-0.4343,1.2292
34.555,61.04,-11.97,8.47,0.6563,-0.3967,1.2048
34.573,54.18,-14.07,-7.14,0.6514,-0.3962,1.1599
34.591,48.23,-17.43,-26.6,0.6719,-0.3894,1.1228
34.608,41.58,-20.65,-41.79,0.6905,-0.4123,1.1575
34.624,35.84,-24.99,-53.55,0.7105,-0.4514,1.1385
34.639,29.89,-29.12,-57.4,0.6812,-0.4636,1.096
34.657,25.34,-35.77,-56.91,0.7032,-0.3025,1.054
34.675,23.52,-42.7,-51.66,0.6397,-0.1995,1.0804
34.692,22.47,-47.74,-48.02,0.5099,-0.1405,1.0623
34.71,22.12,-71.12,-48.37,0.5109,-0.0888,1.0223
34.728,20.79,-58.94,-49.4199,0.4982,-0.1166,0.9628
34.744,15.4,-70.07,-51.03,0.4914,-0.2684,0.9315
34.759,10.15,-78.19,-46.97,0.5104,-0.345,0.9262
34.774,3.5,-84.56,-36.4,0.3962,-0.3479,0.9506
34.791,-5.32,-89.6,-19.81,0.2723,-0.3333,0.9525
34.809,-11.76,-91.35,4.27,0.1459,-0.1937,0.8579
34.827,-16.87,-90.3,22.9599,0.0854,-0.1332,0.8779
34.844,-23.66,-88.97,37.59,0.0692,-0.1146,0.8993
34.861,-29.26,-86.66,53.06,0.0917,-0.1385,0.8798
34.878,-35.28,-84.7,67.62,0.142,-0.1708,0.85
34.896,-41.5099,-83.0899,79.5199,0.2049,-0.2147,0.7944
34.91,-51.03,-80.15,81.2,0.3235,-0.305,0.812
34.928,-61.46,-78.47,74.62,0.4509,-0.325,0.8354
34.943,-70.7699,-76.51,63.91,0.4343,-0.4758,0.8369
34.961,-84.7699,-78.68,49.98,0.567,-0.4743,0.7529
34.975,-78.4,-28.49,22.68,-1.991,1.362,1.0155
34.991,-36.33,-20.16,40.46,0.4782,1.1014,0.8754
35.005,-11.9,-21.77,69.58,0.9999,0.2386,0.6846
35.021,1.82,-13.37,85.96,0.648,-1.6484,1.034
35.039,-7.35,-18.34,61.81,0.7344,-0.1556,0.7871
35.057,-9.24,15.12,37.94,-0.1244,0.0136,1.1194
35.073,-7.77,22.19,57.61,0.7232,-0.7642,1.0736
35.091,0.07,24.64,116.34,0.5128,-0.4226,1.26
35.104,6.23,25.97,166.95,0.4621,-0.3274,0.9999
35.122,11.41,26.95,224.21,0.4484,-0.4162,0.8252
35.14,15.05,27.65,265.09,0.488,-0.4797,0.893
35.158,16.45,30.87,282.66,0.3333,-0.4714,0.9374
35.176,18.55,36.19,286.3,0.3459,-0.4709,0.8222
35.193,19.18,39.27,278.74,0.2288,-0.4187,0.8652
35.211,20.65,42.49,269.64,0.1556,-0.4431,0.8647
35.229,23.59,49.0,267.89,0.1044,-0.4787,0.7603
35.247,27.16,51.8,268.1,0.2874,-0.3889,0.7944
35.263,31.15,51.73,250.53,0.2649,-0.3879,0.7417
35.28,32.97,57.12,210.84,0.0151,-0.3489,0.6275
35.297,29.19,61.25,157.08,0.1795,-1.1243,0.6431
35.313,29.12,59.78,106.19,0.8466,-1.1663,0.2098
35.329,25.83,52.29,52.0099,0.689,-0.6802,0.4074
35.347,16.73,45.99,-8.26,0.5533,-0.7344,0.5333
35.365,8.12,42.35,-39.7599,0.0814,-0.6207,0.7803
35.38,4.9699,46.62,-55.37,-0.1781,-0.6529,0.9486
35.396,3.08,54.46,-62.51,-0.5172,-0.6548,1.0775
35.41,9.03,66.57,-41.3,-0.3089,-0.3093,1.0531
35.426,11.13,66.43,-19.67,-0.0244,-0.5631,1.0028
35.442,12.39,62.44,-12.04,0.4118,-0.6348,1.0316
35.458,10.29,55.79,-36.68,0.444,-0.6446,0.852
35.475,3.71,42.56,-96.6,1.035,-0.6666,0.8383
35.491,-10.64,22.89,-209.3,1.4215,-0.7969,0.6417
35.505,-28.98,5.46,-343.63,1.6816,-0.4191,0.8076
35.519,-41.58,-16.8,-467.32,1.6777,-1.6504,0.811
35.537,-88.13,-35.0,-593.18,0.9208,-2.1554,0.4445
35.55,-107.8,-44.73,-672.07,0.3225,-1.6914,0.0614
35.564,-116.69,-42.56,-725.48,0.0614,-0.812,-0.0107
35.582,-109.27,-49.28,-739.4099,0.5763,-0.6607,0.2557
35.611,-91.56,-70.7,-707.7,-0.305,-1.3317,0.1737
35.628,-94.01,-50.05,-657.1599,-0.4875,-0.365,0.0351
35.643,-82.53,-46.2,-588.14,0.201,-0.6558,0.1146
35.659,-97.0199,-68.95,-508.69,1.6055,-1.6357,0.6363
35.674,-101.5,-100.17,-372.47,2.1833,-1.6748,1.7938
35.692,-115.01,-140.91,-182.07,1.4918,-1.6147,1.604
35.709,-111.44,-133.21,57.47,0.0117,-0.7744,1.2531
35.726,-101.64,-105.07,300.51,0.262,-0.7905,1.0326
35.744,-99.68,-58.45,403.06,0.2156,-0.6222,1.1785
35.762,-98.0,-7.21,367.43,0.0649,-0.4074,1.033
35.779,-92.96,44.24,252.28,0.2098,-0.4782,1.0521
35.794,-92.4,79.24,153.23,0.2688,-0.3489,1.1389
35.812,-94.15,104.65,62.93,0.4216,-0.5856,1.2829
35.827,-91.91,111.16,35.49,0.5485,-0.6695,1.4259
35.845,-99.54,112.21,21.56,0.933,-0.9428,1.502
35.861,-113.61,94.43,0.84,1.4669,-1.0106,1.4791
35.879,-122.5,78.12,-21.7,1.2531,-0.6339,0.9662
35.896,-134.05,63.77,-53.55,0.5885,-0.4309,0.7705
35.912,-132.44,59.57,-79.24,0.3991,-0.0092,0.4709
35.926,-130.13,36.2599,-101.43,0.4914,0.0043,0.2166
35.941,-124.6,47.04,-115.92,0.4026,0.1122,0.3777
35.958,-121.17,38.78,-127.96,0.5241,0.1468,0.4884
35.974,-112.7,35.35,-140.21,0.3742,0.2991,0.426
35.989,-111.09,22.4,-149.59,0.8886,-0.2005,0.2874
36.005,-103.67,-7.35,-137.27,1.2551,0.7837,-0.1873
36.023,-78.89,-30.45,-91.7699,1.2453,0.1439,-0.1376
36.039,-66.01,-49.4199,-42.14,1.0872,0.2674,-0.0634
36.056,-45.08,-62.44,16.31,1.1604,0.1483,-0.0995
36.07,-37.66,-75.67,53.55,1.0462,-0.5211,-0.0014
36.086,-45.9199,-80.57,57.75,0.0897,-0.7295,1.0462
36.102,-53.41,-72.5199,52.64,-0.5011,-0.7207,0.7764
36.119,-50.75,-90.37,40.25,0.4923,0.6475,-1.1633
36.137,-9.24,-101.43,51.52,1.3693,0.5743,-1.1687
36.15,-41.5099,-145.46,85.89,1.3244,-4.5398,0.3674
36.165,-112.98,-130.97,20.65,0.4704,-1.7909,1.5245
36.179,-162.5399,-147.56,-13.79,1.0867,-2.2609,0.8764
36.207,-209.58,-151.48,23.45,0.9311,-1.2278,0.6153
36.225,-224.0,-157.78,69.51,1.0623,-1.0218,0.8744
36.243,-230.72,-129.15,97.79,0.7451,-0.4592,0.4182
36.259,-222.88,-121.52,92.61,0.5094,-0.4816,0.1786
36.274,-213.57,-74.9,51.1,0.3821,-0.6104,-0.018
36.289,-191.87,-55.58,16.52,0.3596,-0.5099,-0.1966
36.305,-169.61,-19.8799,0.14,0.6217,-0.6226,-0.2371
36.323,-137.69,10.01,11.06,0.7725,-0.629,-0.261
36.34,-112.7,38.9199,27.86,1.0008,-0.709,-0.182
36.356,-95.62,57.96,33.6,1.0316,-0.8393,-0.0946
36.373,-87.92,82.04,26.32,0.976,-0.976,-0.0146
36.391,-85.54,104.23,16.73,0.8066,-1.0287,0.037
36.406,-82.95,124.32,12.46,0.9286,-0.9145,-0.0507
36.424,-79.24,144.2,-1.96,0.7461,-0.7427,-0.0214
36.442,-76.44,171.5,-14.14,0.5465,-0.6993,0.0346
36.46,-72.5199,195.3,-0.77,0.5216,-0.711,0.101
36.477,-71.68,213.29,18.83,0.4987,-0.7871,0.2791
36.495,-72.17,229.53,34.93,0.3357,-0.8193,0.2186
36.512,-79.87,250.81,43.82,0.2064,-0.8954,0.426
36.529,-84.98,259.56,55.65,0.2074,-0.9071,0.5197
36.547,-94.22,269.0799,72.1,0.1444,-0.9833,0.6134
36.565,-110.74,274.75,86.87,0.1678,-1.096,0.69
36.582,-123.83,274.96,95.76,0.1737,-1.4176,0.8427
36.6,-135.73,279.44,110.04,-0.203,-1.0882,0.8447
36.618,-145.95,287.77,115.08,-0.2581,-1.2243,0.8988
36.633,-163.17,289.87,117.18,-0.2625,-1.4976,0.6695
36.649,-178.2899,285.32,114.45,0.1166,-1.0404,0.6182
36.665,-185.01,273.49,107.03,0.1712,-0.7266,0.6661
36.678,-193.55,258.37,92.89,0.2371,-0.8891,0.3835
36.693,-205.1,243.74,78.4,0.0673,-0.9476,0.2391
36.71,-220.08,224.98,64.47,-0.1302,-0.9701,0.0922
36.727,-231.98,202.58,67.69,-0.1995,-0.8344,-0.1444
36.742,-234.29,176.19,92.61,-0.0727,-0.749,-0.4274
36.756,-235.48,146.65,114.73,-0.1039,-0.8227,-0.7241
36.771,-239.05,109.76,125.37,-0.2298,-1.0428,-0.9574
36.788,-251.86,67.9,119.91,-0.2908,-1.2341,-1.2117
36.802,-266.35,27.51,109.2,-0.3396,-1.3854,-1.5454
36.817,-280.35,-17.5,110.53,-0.3538,-1.4274,-1.7353
36.832,-291.48,-74.97,112.63,-0.2527,-1.3239,-1.9734
36.847,-296.24,-133.91,102.3399,0.0488,-1.0125,-2.1745
36.861,-299.46,-199.2899,70.28,0.2908,-0.7149,-2.1701
36.877,-297.78,-285.81,26.39,0.4928,-0.7764,-2.1184
36.894,-298.97,-379.26,-5.04,0.5665,-1.4054,-2.0051
36.908,-298.9,-455.77,-24.64,0.447,-1.6357,-2.0637
36.923,-290.22,-525.9099,-38.99,0.3879,-1.6572,-2.1911
36.939,-272.79,-592.76,-66.01,0.4309,-1.6157,-2.2814
36.955,-232.96,-671.93,-108.22,0.5973,-1.2287,-2.2316
36.972,-160.3,-734.51,-176.89,0.9379,-0.7485,-1.9715
36.988,-68.74,-773.08,-290.85,0.9398,-0.345,-1.5069
37.004,138.74,-237.23,682.2199,-6.5982,-3.2847,-0.8827
37.019,43.54,-236.46,330.96,1.5454,-1.8465,-0.9613
37.034,30.31,-204.5399,-73.99,0.2083,0.1195,-1.8568
37.049,16.24,-272.3,-330.6099,0.2152,-0.549,-1.1834
37.065,52.99,-336.35,-452.97,2.0247,-0.2483,-0.8437
37.08,96.25,-402.99,-465.22,1.606,-0.304,-0.4738
37.094,155.61,-417.62,-430.78,1.4527,-0.2913,-0.2971
37.126,239.19,-395.99,-394.1,0.6954,-0.4787,0.081
37.144,283.3599,-366.59,-385.07,0.8798,-0.5797,0.4104
37.162,307.09,-346.0799,-385.21,0.6485,-0.6646,0.4992
37.18,328.16,-316.89,-398.79,0.731,-1.1302,0.5938
37.196,330.96,-293.79,-412.72,0.7105,-1.625,0.7373
37.21,328.72,-271.67,-418.67,0.6319,-1.7036,0.8374
37.226,327.67,-246.82,-408.38,0.5904,-1.6421,0.7646
37.242,326.8299,-216.09,-360.57,0.5592,-1.5328,0.6797
37.257,325.57,-190.33,-327.46,0.5943,-1.3698,0.6441
37.273,323.82,-171.5,-265.37,0.447,-1.2824,0.5167
37.287,318.3599,-156.87,-210.91,0.4099,-1.2424,0.4723
37.301,312.97,-143.78,-160.37,0.3128,-1.1116,0.305
37.317,302.75,-125.58,-119.28,0.1649,-1.1863,0.3552
37.333,293.3,-112.98,-74.41,0.2869,-0.994,0.241
37.361,266.84,-104.44,-19.95,0.425,-0.8256,0.2337
37.377,251.16,-99.33,-8.33,0.3645,-0.7939,0.2322
37.392,232.12,-93.66,-4.48,0.3201,-0.7163,0.1873
37.409,214.41,-86.87,5.81,0.3128,-0.6075,0.14
37.423,201.6,-83.72,23.59,0.4211,-0.4655,0.0317
37.44,189.91,-85.61,51.38,0.7158,-0.2986,-0.0209
37.456,176.47,-92.68,66.78,0.7729,-0.2737,-0.0531
37.472,158.83,-95.48,66.99,0.5797,-0.3245,-0.0351
37.488,138.1799,-94.85,57.19,0.5299,-0.3259,-0.0253
37.503,120.05,-93.8,52.92,0.6319,-0.3821,-0.0439
37.519,98.7,-94.78,59.64,0.8066,-0.4006,-0.0854
37.534,79.03,-97.0899,71.05,0.9686,-0.4187,-0.0312
37.551,50.2599,-94.85,65.66,0.8925,-0.4811,-0.06
37.569,25.55,-79.17,132.37,0.2098,-0.729,0.5943
37.587,-150.57,10.78,306.18,0.1366,-0.6436,0.1532
37.603,-158.41,61.04,292.81,0.6924,-0.4123,-0.0663
37.616,-158.62,59.99,287.07,1.7753,-0.5089,0.3064
37.631,-157.22,49.91,291.48,2.479,-0.1546,0.2488
37.645,-148.26,36.68,283.64,2.5234,0.2571,0.1795
37.661,-138.1799,18.41,238.21,2.5932,0.2703,0.2859
37.678,-130.2,5.32,171.4299,2.2116,0.0458,0.445
37.694,-124.32,0.28,95.13,1.9861,-0.1117,0.7144
37.709,-121.45,-5.04,35.14,1.7607,-0.182,0.8071
37.737,-116.27,-20.09,-35.77,1.6118,-0.1024,0.7105
37.752,-102.62,-17.92,-4.34,1.3146,-0.1151,0.7271
37.77,-85.89,-16.73,37.38,1.3107,0.0097,0.5636
37.788,-72.73,-25.62,21.56,1.3927,0.0566,0.4899
37.803,-61.53,-32.97,26.46,1.3439,0.0248,0.464
37.819,-64.26,-31.43,50.12,1.2688,-0.0912,0.3074
37.834,-72.31,-31.5,40.53,1.2975,0.1381,0.2142
37.849,-64.96,-29.75,32.13,1.1419,0.0971,0.1932
37.864,-55.09,-23.52,15.26,1.0116,0.0497,0.1503
37.88,-51.94,-18.41,-4.06,0.7568,-0.1039,-0.0156
37.897,-45.64,-12.88,-7.21,0.9433,-0.1898,0.1302
37.915,-42.98,-4.48,-7.07,0.7227,-0.2674,0.0936
37.933,-35.0,0.28,-2.94,0.8247,-0.1034,0.0097
37.951,-31.01,0.0,5.67,1.1492,-0.5753,0.0283
37.968,-30.03,0.77,7.98,1.1072,-0.6222,0.0932
37.984,-29.4,4.48,-7.63,0.9428,-0.5548,0.0619
38.0,-21.84,7.28,-26.18,0.995,-0.4157,0.0239
38.014,-23.03,15.05,-40.6699,0.7773,-0.5138,-0.08
38.029,-22.68,22.12,-55.23,0.6353,-0.5221,-0.0468
38.044,-22.12,30.45,-63.21,0.5328,-0.7158,-0.0131
38.062,-25.41,37.59,-65.5199,0.7066,-0.9047,0.0078
38.077,-27.72,37.66,-64.12,1.0335,-0.8364,0.078
38.095,-30.45,35.98,-64.75,0.9686,-0.7451,0.1234
38.111,-31.78,35.63,-64.05,1.0194,-0.6095,0.1688
38.127,-31.29,32.9,-62.51,1.0384,-0.386,0.1878
38.142,-28.49,30.87,-59.64,1.0999,-0.3538,0.1171
38.158,-26.32,25.1299,-57.89,1.137,-0.304,0.081
38.174,-26.18,21.14,-58.1,0.9276,-0.2498,0.0741
38.19,-24.08,19.6,-53.48,0.8403,-0.1761,0.0805
38.206,-21.0,16.31,-48.3,0.8466,-0.183,0.1093
38.221,-19.25,12.46,-44.66,0.8261,-0.2537,0.1058
38.237,-17.5,10.36,-38.5,0.7822,-0.2825,0.1141
38.254,-15.12,4.41,-28.0,0.813,-0.2913,0.1449
38.272,-11.41,17.15,-9.52,0.8442,-0.1693,0.2547
38.29,-2.59,-2.59,3.71,0.8901,-0.2908,0.2308
38.308,1.68,0.14,11.62,0.7656,-0.2581,0.2357
38.326,5.39,6.09,14.14,0.71,-0.3298,0.1986
38.343,7.49,13.3,9.66,0.7603,-0.3567,0.1947
38.361,9.45,21.91,2.1,0.7427,-0.3069,0.2083
38.374,11.06,28.49,-5.04,0.7598,-0.282,0.2015
38.392,12.18,32.97,-14.14,0.8086,-0.2415,0.1869
38.41,14.84,37.59,-19.32,0.9106,-0.2322,0.1966
38.427,15.89,38.0099,-24.99,0.9628,-0.3747,0.2064
38.445,18.06,36.19,-21.7,0.9964,-0.1947,0.2352
38.463,21.6299,31.29,-12.32,1.0409,-0.1825,0.2254
38.479,25.34,27.37,-0.35,0.9901,-0.1771,0.2347
38.496,28.7,19.53,15.68,1.0228,-0.2698,0.261
38.514,33.25,11.97,33.6699,1.0604,-0.2435,0.3098
38.532,38.43,3.08,45.15,1.0716,-0.1839,0.3469
38.547,42.84,-2.52,49.7,1.0282,-0.1429,0.363
38.562,46.55,-7.63,49.56,0.995,-0.1493,0.363
38.58,49.56,-11.9,45.9199,0.9779,-0.1649,0.3664
38.598,53.2,-14.98,42.49,0.9535,-0.1751,0.3655
38.613,56.63,-20.3,42.14,0.9481,-0.1678,0.3601
38.629,59.43,-22.26,41.3,0.8496,-0.179,0.3313
38.647,60.48,-25.41,43.12,0.8945,-0.2864,0.3211
38.665,62.16,-31.08,49.77,0.9555,-0.2669,0.2913
38.681,63.63,-36.12,54.95,1.0711,-0.2849,0.2932
38.699,64.61,-42.98,57.89,1.1204,-0.3054,0.3006
38.717,64.75,-47.25,59.57,1.0901,-0.4035,0.3498
38.733,63.7,-47.81,56.7,1.0472,-0.4533,0.4265
38.748,61.6,-44.66,49.98,0.9535,-0.5045,0.4655
38.765,57.75,-38.9199,38.08,0.9325,-0.569,0.4894
38.783,52.36,-30.8,27.09,0.9032,-0.6461,0.4811
38.8,44.59,-23.8,14.49,0.8871,-0.6607,0.4504
38.818,39.55,-18.41,0.98,0.8935,-0.6505,0.4113
38.836,31.64,-12.53,-7.63,0.8832,-0.6143,0.3747
38.854,23.59,-9.24,-10.64,0.8476,-0.5816,0.3489
38.872,20.58,-8.47,-4.27,0.8666,-0.5626,0.3274
38.885,16.87,-8.54,2.66,0.8686,-0.5187,0.3172
38.899,14.49,-9.31,7.77,0.9291,-0.5016,0.3235
38.915,12.25,-10.85,10.01,0.9764,-0.4679,0.3035
38.931,9.52,-11.06,6.44,0.9433,-0.4148,0.2888
38.946,7.07,-10.71,1.4,0.9164,-0.4035,0.2732
38.963,4.9699,-10.29,-3.85,0.8925,-0.3874,0.2503
38.978,3.78,-10.15,-5.6,0.8749,-0.3835,0.2449
38.996,2.73,-10.85,-4.62,0.8813,-0.3962,0.2342
39.013,1.68,-12.74,-1.4,0.9179,-0.3913,0.2244
39.029,0.98,-15.4,4.2,0.9418,-0.3933,0.2088
39.057,0.84,-16.87,9.38,0.7749,-0.3362,0.2381
39.073,0.56,-15.19,9.31,0.7305,-0.3103,0.2508
39.09,-0.35,-12.88,6.02,0.7193,-0.344,0.2503
39.107,-1.47,-9.87,0.49,0.6861,-0.3123,0.2884
39.124,-2.66,-7.28,-4.41,0.6714,-0.3147,0.2976
39.139,-3.64,-6.72,-5.39,0.73,-0.3372,0.2796
39.157,-4.83,-7.7,-1.33,0.7549,-0.3616,0.2459
39.175,-7.14,-7.56,0.49,0.7363,-0.4104,0.1932
39.192,-9.8,-6.23,1.19,0.7237,-0.467,0.1722
39.207,-12.46,-3.43,2.45,0.7451,-0.5577,0.1629
39.224,-15.54,1.12,-17.92,0.7617,-0.6153,0.222
39.242,-19.81,7.14,-10.43,0.8325,-0.7012,0.2444
39.26,-24.57,12.95,-23.87,0.8622,-0.7456,0.2781
39.278,-27.79,17.43,-34.16,0.9008,-0.7115,0.2835
39.296,-31.22,22.12,-41.23,1.0218,-0.6714,0.2381
39.314,-36.47,23.8,-46.7599,1.2624,-0.7617,-0.0473
39.329,-37.8,29.4,-44.59,1.0257,-0.5509,0.2147
39.346,-37.87,26.18,-41.02,1.1111,-0.507,0.2142
39.361,-35.77,28.7,-44.45,1.0975,-0.2888,0.1254
39.376,-35.91,28.84,-42.28,1.2917,-0.424,0.0439
39.393,-39.41,27.72,-25.41,1.1419,-0.8188,-0.078
39.408,-46.06,27.65,-16.59,0.9272,-0.8247,0.2161
39.424,-65.31,31.29,17.5,0.9247,-0.5533,0.162
39.44,-93.45,29.54,75.6,1.2409,-0.3762,0.0131
39.456,-125.72,38.9199,136.22,0.9345,-0.2381,0.058
39.474,-160.58,69.58,152.74,0.7598,0.0273,0.0917
39.492,-198.66,97.16,121.8,1.0252,0.1586,0.2732
39.507,-227.64,124.74,50.47,0.9437,0.2357,0.5148
39.523,-255.85,145.25,-7.91,0.8686,0.2259,0.7344
39.54,-273.28,171.08,-23.17,0.5665,0.2064,0.9408
39.553,-280.0,188.09,-11.97,0.3655,0.0829,1.096
39.566,-282.66,208.95,7.14,0.1464,-0.1024,1.1975
39.58,-281.47,227.43,47.6699,0.1005,-0.3469,1.199
39.594,-276.71,241.36,103.88,0.2269,-0.5021,1.0316
39.612,-260.96,253.4,187.11,0.2928,-0.6139,0.7866
39.627,-250.53,259.98,237.72,0.4494,-0.9857,0.5519
39.642,-246.61,265.8599,266.77,0.4631,-1.3693,0.283
39.657,-245.35,279.09,266.56,-0.0805,-1.3756,0.2098
39.686,-236.6,312.27,261.73,0.1551,-1.4664,-0.1322
39.7,-223.02,320.81,270.8299,0.3401,-1.4444,-0.2347
39.715,-196.7,326.76,280.7,0.5553,-1.2688,-0.1781
39.731,-163.66,328.44,275.31,0.7168,-1.0638,-0.0951
39.747,-136.22,327.74,238.42,0.5812,-0.9535,0.0683
39.763,-111.58,328.02,185.4299,0.4626,-0.8935,0.1068
39.776,-85.82,327.88,154.7,0.3655,-0.8203,0.1141
39.789,-68.95,326.76,123.83,0.2654,-0.7056,0.1371
39.803,-54.88,326.62,86.24,0.0087,-0.6939,0.2464
39.817,-51.1,326.55,46.34,-0.2552,-0.8759,0.2283
39.832,-56.21,324.52,17.15,-0.5446,-1.0116,0.2249
39.847,-69.58,317.66,1.61,-0.5943,-1.321,0.2278
39.862,-92.68,300.79,9.17,-0.3001,-1.381,0.2781
39.877,-110.95,273.7,32.06,-0.0824,-1.3932,0.3025
39.891,-129.85,232.96,61.25,0.1952,-1.3908,0.2644
39.907,-137.83,195.3,93.24,0.0522,-1.3029,-0.0917
39.925,-134.61,160.58,114.87,-0.0131,-0.8793,-0.3494
39.939,-124.88,142.38,117.11,-0.1668,-0.6866,-0.5299
39.957,-107.1,128.94,112.77,-0.2327,-0.7632,-0.7739
39.973,-97.3,122.15,94.01,-0.3435,-0.8242,-0.9774
39.991,-84.91,123.62,51.38,-0.73,-0.9184,-1.1204
40.007,-78.12,115.01,24.22,-0.4333,-1.1102,-0.871
40.022,-79.17,99.68,11.06,-0.3674,-1.1102,-0.7207
40.049,-90.0199,61.88,-2.45,-0.4801,-1.0755,-0.5187
40.067,-99.61,32.69,-5.88,-0.5665,-1.2278,-0.6324
40.083,-110.18,7.0,2.31,-0.6422,-1.3083,-0.7359
40.101,-120.96,-18.62,26.32,-0.6773,-1.2897,-0.6783
40.118,-129.57,-42.84,56.35,-0.7315,-1.1414,-0.7363
40.136,-136.71,-69.23,69.58,-0.7939,-0.9745,-0.8949
40.152,-142.17,-93.87,63.91,-0.7481,-0.7886,-0.9794
40.168,-147.35,-120.33,48.44,-0.7354,-0.854,-0.9442
40.182,-154.14,-144.41,34.37,-0.7339,-1.1389,-0.9184
40.198,-167.09,-173.32,22.26,-0.7764,-1.7367,-1.2644
40.216,-187.74,-199.15,10.43,-1.3717,-2.2794,-1.9222
40.23,-186.69,-223.86,35.91,-0.972,-1.8661,-2.2125
40.248,-167.37,-302.4,122.5,0.5216,-1.4039,-1.6718
40.264,-156.1,-379.82,117.67,0.7988,-1.5196,-1.1414
40.28,-143.57,-446.53,21.49,0.5441,-1.1189,-1.1287
40.298,-95.48,-481.32,-423.36,0.0531,-0.4718,-1.179
40.316,-175.42,573.58,-375.13,4.6257,2.9036,-0.3884
40.331,-40.95,353.92,-7.0,-6.5226,-1.2268,-1.1936
40.349,133.49,213.29,895.65,0.892,-1.3917,-1.8012
40.367,201.39,-64.47,961.24,0.5997,-1.0199,-1.1487
40.384,173.32,-136.92,784.84,2.6498,-0.4406,-0.75
40.399,104.58,-201.25,581.84,1.8265,-0.3162,-0.5607
40.415,37.1699,-235.2,337.19,0.7949,-0.1283,-0.4972
40.431,-6.79,-250.6,130.41,0.6021,-0.0444,-0.4816
40.448,-47.95,-268.52,3.36,0.6607,0.0732,-0.4382
40.465,-60.76,-282.17,-57.82,0.4143,-0.0224,-0.3352
40.481,-64.26,-288.3299,-84.63,0.0814,-0.12,-0.2318
40.497,-62.44,-288.26,-96.46,-0.0785,-0.2244,-0.1273
40.512,-62.51,-281.4,-101.08,-0.283,-0.4352,0.0263
40.53,-58.24,-285.25,-109.9,-0.2908,-0.2235,0.0322
40.547,-46.27,-277.8299,-119.56,-0.383,-0.0317,-0.0273
40.563,-33.95,-267.82,-129.64,-0.4099,-0.059,0.0502
40.579,-20.93,-256.69,-138.95,-0.4421,-0.1556,-0.0224
40.597,-10.64,-244.3,-147.28,-0.4948,-0.2386,-0.0356
40.61,2.45,-233.31,-149.38,-0.3625,-0.3928,-0.0561
40.624,11.6899,-224.63,-148.19,-0.3484,-0.4235,0.0107
40.638,20.51,-217.14,-138.74,-0.3245,-0.3879,0.0097
40.655,35.14,-210.49,-119.28,-0.1927,-0.2225,0.0512
40.684,67.2699,-209.65,-76.51,0.2069,-0.2025,0.3552
40.702,74.76,-214.13,-65.24,0.303,-0.3899,0.4504
40.715,78.68,-214.27,-77.0,0.1747,-0.4645,0.5153
40.729,80.15,-211.05,-103.88,0.0517,-0.385,0.4958
40.744,83.3,-207.97,-139.51,0.1834,-0.2732,0.5206
40.76,87.29,-205.8,-184.94,0.3074,-0.3352,0.5421
40.788,93.8,-207.06,-252.42,0.6109,-0.4718,0.6822
40.804,98.91,-208.32,-274.47,0.8139,-0.4758,0.7759
40.823,92.75,-207.76,-277.69,0.4006,-1.4879,0.853
40.836,66.57,-201.81,-273.14,0.5368,-1.8885,1.1355
40.85,46.55,-206.01,-257.53,0.6475,-2.1857,1.5108
40.865,27.93,-214.76,-223.37,0.7705,-1.6494,1.5313
40.88,21.35,-223.44,-147.7,0.6012,-1.3727,1.3688
40.898,15.54,-223.3,-41.09,0.2479,-1.0457,1.2566
40.913,14.35,-216.72,37.8,0.0151,-0.8452,1.3815
40.926,10.15,-206.57,97.79,0.0,-0.7949,1.4205
40.941,6.79,-194.1799,135.73,0.2015,-0.6402,1.3337
40.957,2.31,-185.22,149.87,0.2971,-0.649,1.1785
40.973,-1.75,-174.86,140.63,0.423,-0.5929,1.1199
40.988,-4.9,-168.28,106.54,0.6119,-0.5324,1.0887
41.004,-8.54,-160.7899,60.13,0.5563,-0.5397,1.1516
41.022,-11.76,-150.15,-0.63,0.6246,-0.5016,1.219
41.039,-11.34,-146.86,-31.78,0.8242,-0.5485,1.1887
41.054,-7.77,-146.02,-39.62,0.8252,-0.4948,1.137
41.072,-2.45,-144.9,-35.56,0.7969,-0.4626,1.0384
41.1,12.04,-143.71,-25.34,0.9023,-0.3142,0.934
41.117,20.09,-143.64,-30.38,0.9618,-0.2225,0.9037
41.134,26.81,-142.38,-52.64,0.9174,-0.2435,0.83
41.152,32.41,-135.87,-84.42,0.7744,-0.2069,0.8618
41.166,42.49,-128.24,-96.74,0.7568,-0.2342,0.8169
41.184,52.29,-118.09,-91.8399,0.7793,-0.282,0.7544
41.201,63.0,-109.27,-73.29,0.7271,-0.3289,0.6978
41.217,70.14,-100.5899,-49.07,0.7134,-0.3684,0.6578
41.234,75.74,-93.24,-22.68,0.6861,-0.3401,0.6578
41.252,76.79,-84.07,-9.52,0.6949,-0.4045,0.6319
41.268,76.37,-75.25,1.12,0.6378,-0.4323,0.6285
41.284,74.48,-67.62,13.79,0.7071,-0.4621,0.6202
41.299,71.47,-60.41,26.46,0.7329,-0.5006,0.6344
41.317,68.53,-54.04,47.32,0.7217,-0.4997,0.6075
41.335,65.17,-51.94,63.35,0.7988,-0.5392,0.5431
41.352,61.32,-51.52,57.61,0.8154,-0.4636,0.4753
41.367,57.4,-48.37,39.13,0.6597,-0.4582,0.4884
41.385,52.92,-43.12,9.52,0.6261,-0.4553,0.4767
41.403,46.69,-39.55,-6.3,0.6514,-0.4919,0.4406
41.419,44.1699,-37.1,-4.06,0.67,-0.5197,0.4723
41.437,43.2599,-35.21,18.48,0.7002,-0.5504,0.4972
41.455,42.4199,-34.02,51.66,0.7285,-0.5895,0.4923
41.471,42.84,-32.48,77.14,0.6817,-0.6163,0.4587
41.485,43.82,-29.96,100.66,0.6265,-0.5899,0.4421
41.501,30.66,8.89,75.53,0.3943,-0.3679,0.4108
41.516,27.93,10.57,91.0,0.7202,-0.6978,0.4094
41.533,24.08,33.95,112.0,0.75,-0.5973,0.4523
41.55,0.42,22.61,106.19,0.6846,-0.6134,0.5148
41.567,10.78,23.73,93.94,0.6456,-0.546,0.5153
41.582,4.27,21.49,87.64,0.6519,-0.566,0.4762
41.598,-1.82,17.5,80.29,0.6602,-0.6217,0.464
41.616,-5.7399,21.98,27.65,0.6436,-0.4733,0.4548
41.634,-1.33,17.36,8.47,0.8823,-0.5304,0.4338
41.651,7.07,10.15,12.67,0.9228,-0.5646,0.4621
41.665,13.79,0.77,24.78,0.9315,-0.5206,0.4104
41.681,21.14,-5.95,23.17,0.8564,-0.6104,0.5475
41.695,23.17,-11.4799,14.7,0.8442,-0.5807,0.5607
41.711,25.2,-19.6,12.39,0.8627,-0.6236,0.5865
41.725,23.52,-24.5,6.09,0.8149,-0.6075,0.6246
41.741,12.11,-24.64,-23.94,0.7168,-0.6275,0.6749
41.755,0.0,-24.43,-39.2,0.79,-0.6251,0.5045
41.773,-3.78,-23.87,-36.61,0.7734,-0.5909,0.5392
41.786,-3.36,-20.09,-20.72,0.7066,-0.6324,0.5987
41.8,-0.63,-15.4,2.59,0.6397,-0.6387,0.65
41.817,1.75,-11.62,24.78,0.6651,-0.649,0.6763
41.833,1.75,-10.71,36.33,0.6939,-0.6368,0.6739
