timestamp,gyrox,gyroy,gyroz,accelx,accely,accelz
0.546,2.45,-1.54,0.21,1.0267,-0.0356,-0.0366
0.561,2.52,-1.47,0.21,1.0247,-0.037,-0.037
0.575,2.24,-1.47,0.14,1.0267,-0.0356,-0.038
0.589,2.31,-1.4,0.07,1.0233,-0.0366,-0.0375
0.607,2.38,-1.47,0.21,1.0257,-0.0356,-0.037
0.636,2.38,-1.4,0.07,1.0252,-0.0361,-0.038
0.653,2.52,-1.54,0.07,1.0252,-0.0356,-0.037
0.668,2.45,-1.4,0.14,1.0252,-0.0336,-0.0341
0.684,2.45,-1.4,0.07,1.0223,-0.0361,-0.0351
0.702,2.31,-1.47,0.14,1.0257,-0.0361,-0.0361
0.72,2.52,-1.4,0.14,1.0238,-0.0361,-0.0366
0.738,2.38,-1.47,0.07,1.0243,-0.0341,-0.0361
0.756,2.45,-1.47,0.07,1.0252,-0.0336,-0.0385
0.773,2.38,-1.4,0.07,1.0252,-0.0361,-0.0375
0.789,2.38,-1.47,0.14,1.0262,-0.0346,-0.038
0.807,2.45,-1.54,0.14,1.0252,-0.0356,-0.0366
0.823,2.38,-1.47,-0.07,1.0238,-0.0356,-0.0351
0.84,2.45,-1.47,0.07,1.0243,-0.0341,-0.0375
0.856,2.31,-1.47,0.07,1.0247,-0.0341,-0.0356
0.872,2.52,-1.47,0.14,1.0252,-0.0346,-0.0375
0.891,2.38,-1.47,0.14,1.0262,-0.0341,-0.0375
0.909,2.52,-1.47,0.0,1.0243,-0.0346,-0.0361
0.925,2.45,-1.47,0.07,1.0238,-0.0331,-0.0356
0.939,2.45,-1.47,0.0,1.0252,-0.0356,-0.038
0.954,2.52,-1.47,0.07,1.0272,-0.0351,-0.037
0.969,2.45,-1.47,0.0,1.0243,-0.0336,-0.0356
0.987,2.45,-1.47,0.14,1.0247,-0.0331,-0.037
1.003,2.38,-1.47,0.14,1.0257,-0.0346,-0.0356
1.02,2.38,-1.4,0.14,1.0252,-0.0366,-0.0351
1.037,2.38,-1.47,0.0,1.0267,-0.0341,-0.0356
1.055,2.52,-1.4,0.14,1.0247,-0.0351,-0.037
1.07,2.52,-1.47,0.14,1.0228,-0.0351,-0.0361
1.088,2.24,-1.47,0.21,1.0233,-0.0361,-0.0366
1.103,2.31,-1.4,0.07,1.0247,-0.0341,-0.038
1.118,2.52,-1.54,0.07,1.0238,-0.0336,-0.0375
1.134,2.31,-1.47,0.07,1.0243,-0.0375,-0.038
1.151,2.38,-1.4,0.14,1.0272,-0.0351,-0.0361
1.169,2.45,-1.47,0.14,1.0238,-0.0336,-0.038
1.187,2.38,-1.54,0.14,1.0257,-0.0346,-0.0351
1.203,2.38,-1.47,0.14,1.0252,-0.0336,-0.0356
1.219,2.52,-1.4,0.07,1.0247,-0.0331,-0.0375
1.237,2.45,-1.47,0.14,1.0247,-0.0346,-0.0366
1.254,2.52,-1.47,0.14,1.0247,-0.0336,-0.0356
1.272,2.59,-1.47,0.21,1.0247,-0.0351,-0.0375
1.286,2.45,-1.47,0.0,1.0243,-0.0341,-0.037
1.299,2.31,-1.4,0.07,1.0272,-0.0336,-0.0375
1.315,2.31,-1.47,0.07,1.0267,-0.0351,-0.0375
1.331,2.45,-1.4,0.07,1.0228,-0.0356,-0.0356
1.346,2.52,-1.47,0.14,1.0247,-0.0351,-0.0366
1.377,2.45,-1.47,0.14,1.0238,-0.0326,-0.0351
1.392,2.45,-1.47,0.14,1.0257,-0.0336,-0.0361
1.41,2.45,-1.4,0.14,1.0252,-0.0341,-0.0366
1.425,2.38,-1.47,0.21,1.0247,-0.0341,-0.0351
1.441,2.31,-1.4,0.0,1.0243,-0.0356,-0.037
1.455,2.59,-1.4,0.07,1.0252,-0.0356,-0.037
1.47,2.31,-1.54,0.21,1.0243,-0.0326,-0.0375
1.486,2.45,-1.4,0.07,1.0257,-0.0341,-0.037
1.502,2.45,-1.47,0.07,1.0252,-0.0356,-0.0366
1.517,2.45,-1.4,0.21,1.0262,-0.0361,-0.0356
1.535,2.59,-1.47,0.14,1.0247,-0.0346,-0.039
1.552,2.38,-1.47,0.14,1.0267,-0.0361,-0.037
1.568,2.52,-1.47,0.07,1.0252,-0.0366,-0.0361
1.584,2.17,-1.54,0.14,1.0247,-0.0346,-0.037
1.601,2.45,-1.47,0.07,1.0247,-0.0346,-0.0375
1.618,2.45,-1.47,0.14,1.0267,-0.0356,-0.037
1.634,2.52,-1.47,0.07,1.0243,-0.0336,-0.037
1.651,2.38,-1.47,0.14,1.0267,-0.037,-0.0405
1.668,2.31,-1.54,0.14,1.0257,-0.0356,-0.0375
1.684,2.38,-1.47,0.14,1.0243,-0.0346,-0.0375
1.699,2.52,-1.4,0.14,1.0277,-0.0361,-0.037
1.717,2.52,-1.54,0.07,1.0247,-0.0336,-0.0346
1.734,2.52,-1.4,0.07,1.0252,-0.0356,-0.0356
1.75,2.38,-1.47,0.07,1.0252,-0.0366,-0.0375
1.768,2.59,-1.47,0.14,1.0252,-0.0356,-0.0375
1.786,2.38,-1.47,0.07,1.0262,-0.0356,-0.037
1.804,2.24,-1.47,0.07,1.0243,-0.0356,-0.0361
1.822,2.52,-1.47,0.07,1.0238,-0.0341,-0.0375
1.841,2.38,-1.47,0.14,1.0252,-0.0346,-0.038
1.859,2.38,-1.47,0.07,1.0247,-0.0346,-0.037
1.877,2.31,-1.47,0.0,1.0257,-0.0361,-0.0361
1.895,2.52,-1.4,0.07,1.0267,-0.0351,-0.037
1.913,2.38,-1.47,0.07,1.0277,-0.0346,-0.0341
1.928,2.45,-1.47,0.14,1.0257,-0.0341,-0.0351
1.944,2.45,-1.4,0.21,1.0247,-0.0361,-0.0375
1.962,2.38,-1.4,0.14,1.0238,-0.0351,-0.0351
1.98,2.52,-1.47,0.07,1.0267,-0.0346,-0.0356
1.995,2.52,-1.47,0.14,1.0247,-0.0336,-0.038
2.011,2.52,-1.47,0.14,1.0252,-0.038,-0.0356
2.025,2.31,-1.47,0.07,1.0233,-0.0331,-0.0346
2.041,2.52,-1.47,0.14,1.0247,-0.0366,-0.0366
2.055,2.38,-1.4,0.0,1.0238,-0.0356,-0.038
2.071,2.52,-1.47,0.14,1.0272,-0.0341,-0.0375
2.085,2.24,-1.47,0.21,1.0257,-0.0361,-0.0356
2.101,2.38,-1.4,0.14,1.0243,-0.0366,-0.0361
2.115,2.59,-1.47,0.14,1.0262,-0.0331,-0.0366
2.131,2.38,-1.47,0.21,1.0262,-0.0351,-0.039
2.146,2.45,-1.47,0.07,1.0262,-0.0351,-0.0385
2.16,2.31,-1.4,0.14,1.0277,-0.0351,-0.037
2.176,2.38,-1.54,0.14,1.0233,-0.0341,-0.0346
2.19,2.31,-1.4,0.14,1.0243,-0.0346,-0.037
2.205,2.45,-1.54,0.21,1.0252,-0.0346,-0.038
2.221,2.59,-1.47,0.0,1.0252,-0.0336,-0.0366
2.236,2.38,-1.47,0.07,1.0247,-0.0346,-0.0375
2.25,2.45,-1.47,0.14,1.0257,-0.0341,-0.0375
2.266,2.45,-1.4,0.14,1.0272,-0.0361,-0.0366
2.28,2.38,-1.4,0.14,1.0243,-0.0346,-0.0366
2.296,2.52,-1.47,0.14,1.0252,-0.0341,-0.0366
2.31,2.52,-1.47,0.14,1.0257,-0.0366,-0.037
2.325,2.38,-1.47,0.14,1.0252,-0.0361,-0.0361
2.34,2.45,-1.47,0.21,1.0247,-0.0361,-0.0366
2.356,2.31,-1.4,-17.85,1.0238,-0.0361,-0.0361
2.37,2.38,-1.47,0.07,1.0247,-0.0361,-0.0361
2.386,2.31,-1.47,0.14,1.0252,-0.0331,-0.0385
2.4,2.45,-1.4,0.07,1.0247,-0.0331,-0.0375
2.416,2.38,-1.47,0.14,1.0252,-0.0351,-0.0361
2.43,2.52,-1.4,0.07,1.0233,-0.0361,-0.0366
2.446,2.45,-1.47,0.07,1.0243,-0.0341,-0.039
2.461,2.38,-1.47,0.14,1.0238,-0.0341,-0.037
2.477,2.45,-1.47,0.07,1.0238,-0.0356,-0.038
2.492,2.38,-1.47,0.14,1.0247,-0.0351,-0.037
2.51,2.52,-1.47,0.07,1.0252,-0.0346,-0.0366
2.528,2.45,-1.47,0.14,1.0228,-0.0356,-0.0361
2.543,2.52,-1.47,0.21,1.0257,-0.0356,-0.0356
2.558,2.45,-1.47,0.0,1.0238,-0.0346,-0.037
2.573,2.52,-1.47,0.14,1.0262,-0.0361,-0.037
2.591,2.38,-1.47,0.07,1.0262,-0.0361,-0.037
2.607,2.59,-1.47,0.14,1.0247,-0.0351,-0.037
2.623,2.38,-1.54,0.14,1.0243,-0.0346,-0.037
2.641,2.38,-1.68,0.14,1.0238,-0.0346,-0.0361
2.658,2.38,-1.61,0.14,1.0257,-0.0356,-0.0375
2.676,2.31,-1.54,0.14,1.0272,-0.0366,-0.037
2.691,2.31,-1.47,0.14,1.0247,-0.0351,-0.0375
2.704,2.31,-1.54,0.07,1.0247,-0.0351,-0.037
2.72,2.31,-1.47,0.07,1.0247,-0.0336,-0.0361
2.734,2.38,-1.47,0.07,1.0252,-0.0346,-0.0356
2.749,2.45,-1.47,0.14,1.0243,-0.0341,-0.0361
2.763,2.45,-1.4,0.14,1.0228,-0.0331,-0.038
2.791,2.45,-1.47,0.07,1.0262,-0.0322,-0.0361
2.805,2.38,-1.47,0.28,1.0252,-0.0366,-0.0366
2.821,2.38,-1.47,0.07,1.0262,-0.0366,-0.038
2.835,2.38,-1.47,0.21,1.0262,-0.0351,-0.0375
2.851,2.59,-1.47,0.21,1.0247,-0.0356,-0.039
2.869,2.52,-1.47,0.14,1.0243,-0.0346,-0.0385
2.885,2.52,-1.47,0.21,1.0238,-0.0361,-0.0366
2.901,2.52,-1.4,0.07,1.0257,-0.0366,-0.0375
2.918,2.38,-1.47,0.21,1.0252,-0.0351,-0.0375
2.936,2.38,-1.47,0.21,1.0257,-0.0351,-0.0395
2.954,2.45,-1.47,0.07,1.0238,-0.0341,-0.0375
2.97,2.38,-1.4,0.14,1.0247,-0.037,-0.0351
2.986,2.52,-1.4,0.07,1.0257,-0.0356,-0.038
3.004,2.52,-1.4,0.14,1.0252,-0.0331,-0.037
3.021,2.45,-1.47,0.14,1.0243,-0.0346,-0.0366
3.038,2.24,-1.4,0.14,1.0238,-0.0361,-0.039
3.051,2.52,-1.54,0.07,1.0252,-0.0341,-0.0375
3.069,2.45,-1.47,0.07,1.0257,-0.0361,-0.0375
3.083,2.45,-1.47,0.0,1.0252,-0.0375,-0.0375
3.099,2.31,-1.47,0.21,1.0247,-0.0336,-0.0356
3.115,2.24,-1.47,0.07,1.0267,-0.0351,-0.0356
3.132,2.45,-1.47,0.07,1.0243,-0.0375,-0.037
3.148,2.45,-1.47,0.14,1.0243,-0.0346,-0.0361
3.162,2.45,-1.47,0.14,1.0252,-0.0341,-0.0361
3.179,2.45,-1.4,0.14,1.0252,-0.0356,-0.0356
3.197,2.52,-1.47,0.14,1.0243,-0.0341,-0.0385
3.214,2.45,-1.47,0.07,1.0272,-0.0361,-0.039
3.23,2.31,-1.54,0.14,1.0262,-0.0356,-0.038
3.246,2.45,-1.4,0.07,1.0223,-0.0346,-0.0375
3.261,2.31,-1.47,0.07,1.0257,-0.0336,-0.0375
3.279,2.45,-1.47,0.14,1.0257,-0.0356,-0.0375
3.297,2.45,-1.47,0.07,1.0252,-0.0361,-0.037
3.315,2.38,-1.47,0.07,1.0257,-0.0361,-0.0366
3.331,2.38,-1.47,0.14,1.0233,-0.0351,-0.0341
3.349,2.45,-1.4,0.07,1.0267,-0.0361,-0.0361
3.366,2.45,-1.47,0.21,1.0257,-0.0346,-0.0366
3.384,2.52,-1.47,0.07,1.0262,-0.0361,-0.037
3.402,2.45,-1.54,0.14,1.0247,-0.0356,-0.038
3.42,2.59,-1.54,0.07,1.0262,-0.0351,-0.0356
3.435,2.59,-1.4,0.14,1.0238,-0.0361,-0.0361
3.448,2.45,-1.47,0.07,1.0262,-0.037,-0.037
3.462,2.38,-1.47,0.14,1.0267,-0.0341,-0.0375
3.476,2.31,-1.47,0.07,1.0243,-0.0351,-0.037
3.492,2.45,-1.47,0.14,1.0238,-0.0346,-0.0366
3.506,2.38,-1.47,0.07,1.0257,-0.0361,-0.0356
3.521,2.31,-1.47,0.07,1.0247,-0.0356,-0.038
3.537,2.31,-1.47,0.14,1.0262,-0.0346,-0.0351
3.553,2.38,-1.47,0.21,1.0257,-0.0361,-0.0375
3.567,2.45,-1.4,0.07,1.0252,-0.0361,-0.0385
3.582,2.45,-1.47,0.14,1.0252,-0.0366,-0.0375
3.597,2.24,-1.47,0.14,1.0243,-0.0346,-0.0375
3.615,2.31,-1.47,0.07,1.0257,-0.037,-0.0366
3.629,2.38,-1.47,0.14,1.0238,-0.0336,-0.0361
3.643,2.31,-1.47,0.07,1.0247,-0.0366,-0.037
3.657,2.38,-1.47,0.07,1.0267,-0.0356,-0.0366
3.673,2.38,-1.47,0.07,1.0233,-0.0341,-0.037
3.688,2.31,-1.19,-0.07,1.0262,-0.0336,-0.0409
3.702,2.59,-1.75,0.21,1.0257,-0.0336,-0.0351
3.717,2.59,-1.47,0.28,1.0252,-0.0356,-0.037
3.733,2.45,-1.4,0.21,1.0252,-0.0341,-0.0366
3.747,2.38,-1.4,0.14,1.0272,-0.0346,-0.0356
3.765,2.45,-1.47,0.07,1.0223,-0.0341,-0.038
3.78,2.38,-1.47,0.21,1.0247,-0.0361,-0.0366
3.798,2.45,-1.47,0.07,1.0262,-0.0361,-0.0366
3.816,2.38,-1.47,0.14,1.0262,-0.0336,-0.0375
3.834,2.52,-1.47,0.07,1.0238,-0.0341,-0.0366
3.847,2.45,-1.54,0.07,1.0257,-0.0341,-0.037
3.863,2.52,-1.47,0.07,1.0272,-0.0346,-0.037
3.88,2.45,-1.4,0.07,1.0252,-0.0356,-0.0366
3.896,2.45,-1.47,0.0,1.0257,-0.0356,-0.0356
3.911,2.38,-1.47,0.07,1.0257,-0.0356,-0.0409
3.928,2.38,-1.47,0.14,1.0247,-0.0361,-0.0361
3.942,2.52,-1.47,0.21,1.0252,-0.0336,-0.037
3.957,2.45,-1.4,0.14,1.0257,-0.0356,-0.0375
3.972,2.45,-1.47,0.07,1.0267,-0.0366,-0.0375
3.988,2.38,-1.54,0.28,1.0247,-0.0356,-0.0361
4.002,2.38,-1.47,0.21,1.0247,-0.0336,-0.0375
4.02,2.52,-1.47,0.14,1.0247,-0.0351,-0.037
4.035,2.45,-1.47,0.14,1.0238,-0.0356,-0.037
4.053,2.45,-1.47,0.14,1.0257,-0.0351,-0.037
4.069,2.45,-1.47,0.07,1.0247,-0.0351,-0.037
4.087,2.45,-1.47,0.14,1.0247,-0.0336,-0.0375
4.106,2.31,-1.47,0.14,1.0257,-0.0356,-0.0375
4.124,2.31,-1.54,0.07,1.0247,-0.0375,-0.037
4.142,2.45,-1.19,0.07,1.0282,-0.0366,-0.0414
4.157,2.38,-1.61,0.07,1.0247,-0.0341,-0.0341
4.174,2.52,-1.47,0.07,1.0252,-0.0361,-0.0366
4.192,2.45,-1.4,0.0,1.0282,-0.0336,-0.0361
4.209,2.31,-1.47,0.14,1.0252,-0.0331,-0.0405
4.222,2.38,-1.54,0.07,1.0243,-0.0351,-0.0366
4.236,2.31,-1.47,0.07,1.0252,-0.0326,-0.0375
4.251,2.45,-1.33,0.07,1.0243,-0.0366,-0.038
4.268,2.38,-1.47,0.14,1.0243,-0.0341,-0.0375
4.286,2.45,-1.4,0.14,1.0247,-0.0351,-0.038
4.3,2.45,-1.47,0.07,1.0257,-0.0341,-0.038
4.318,2.45,-1.47,0.07,1.0243,-0.0341,-0.0385
4.335,2.52,-1.47,-0.07,1.0252,-0.0326,-0.0351
4.353,2.38,-1.54,0.14,1.0267,-0.0346,-0.0385
4.371,2.52,-1.47,0.07,1.0252,-0.0351,-0.0356
4.387,2.45,-1.4,0.14,1.0252,-0.0341,-0.0375
4.403,2.52,-1.47,0.07,1.0243,-0.0336,-0.0351
4.418,2.45,-1.47,0.07,1.0252,-0.0326,-0.0385
4.433,2.45,-1.47,0.14,1.0262,-0.0356,-0.0366
4.45,2.45,-1.4,0.21,1.0257,-0.0336,-0.0375
4.468,2.45,-1.47,0.14,1.0233,-0.0356,-0.038
4.486,2.31,-1.4,0.21,1.0243,-0.0361,-0.0385
4.504,2.45,-1.47,0.14,1.0257,-0.0356,-0.0366
4.521,2.52,-1.47,0.14,1.0277,-0.0351,-0.0361
4.538,2.38,-1.47,0.07,1.0247,-0.0346,-0.037
4.553,2.52,-1.47,0.07,1.0252,-0.0336,-0.0375
4.569,2.52,-1.47,0.07,1.0252,-0.0346,-0.0375
4.587,2.38,-1.47,0.07,1.0272,-0.0346,-0.0375
4.605,2.31,-1.47,0.07,1.0247,-0.0351,-0.0361
4.62,2.45,-1.47,0.14,1.0252,-0.0356,-0.037
4.636,2.38,-1.47,0.0,1.0247,-0.0356,-0.0356
4.654,2.45,-1.4,0.14,1.0243,-0.0356,-0.0366
4.671,2.31,-1.47,0.14,1.0247,-0.0356,-0.039
4.688,2.31,-1.54,0.14,1.0243,-0.0351,-0.0395
4.704,2.59,-1.4,0.0,1.0262,-0.0341,-0.039
4.72,2.17,-1.4,0.14,1.0243,-0.0351,-0.0361
4.738,2.45,-1.47,0.0,1.0257,-0.0346,-0.04
4.752,3.36,-1.4,-0.35,1.0267,-0.0322,-0.0346
4.77,2.94,-1.4,0.98,1.0223,-0.0473,-0.0414
4.788,1.96,-1.54,0.63,1.0223,-0.0263,-0.0312
4.806,2.1,-1.61,0.84,1.0272,-0.0312,-0.0341
4.822,-2.66,-2.94,4.83,1.0277,-0.0068,-0.0219
4.84,1.89,-5.81,7.07,1.0204,-0.0717,-0.019
4.856,-0.14,-4.48,2.73,1.0228,-0.0527,-0.0473
4.871,1.96,-1.89,1.12,1.0247,-0.059,-0.0527
4.889,6.44,1.4,-1.47,1.0672,0.2059,-0.0297
4.905,29.54,6.09,-20.44,1.3839,0.5509,-0.2469
4.921,-12.95,-8.75,54.04,1.1233,-2.2316,-0.0185
4.936,1.47,1.75,18.1299,1.1858,0.9047,0.1176
4.954,10.29,-18.9,14.7,1.4166,0.4177,-0.1273
4.97,16.66,-23.31,4.69,1.402,0.1205,-0.0727
4.988,17.01,-28.07,-8.82,1.2419,-0.0458,-0.0175
5.004,13.58,-35.7,-21.6299,1.3502,-0.0839,0.1263
5.022,11.76,-21.7,-23.03,0.8466,-0.1224,0.303
5.037,14.28,-21.14,-5.95,0.2781,-0.079,0.0658
5.055,14.42,-43.4,24.78,0.9281,-0.0688,0.0995
5.07,13.16,-33.95,41.37,0.6836,0.1493,-0.0107
5.086,14.07,-30.03,32.62,1.2019,0.1112,0.0551
5.1,13.65,-36.89,18.76,1.0384,-0.1756,0.0854
5.116,21.49,-23.31,-7.49,0.8852,-0.3313,-0.0566
5.134,8.61,-50.54,-5.25,2.2301,-0.1254,0.0322
5.152,31.01,-12.88,-13.72,1.6367,-0.2088,-0.1903
5.168,13.3,-25.55,-5.25,0.5099,-0.2361,-0.0653
5.183,20.58,-42.07,-9.66,2.1901,-0.301,-0.142
5.199,10.01,-37.1699,-12.04,1.524,-0.142,0.0048
5.217,5.32,-28.56,-1.68,2.0779,-0.0283,0.098
5.234,5.88,-14.91,4.83,1.2487,0.0004,-0.1727
5.251,5.04,-13.58,-0.56,0.0936,0.1771,-0.4606
5.269,27.3,-23.1,13.23,1.0233,0.223,-0.3538
5.286,19.04,-19.32,29.33,0.14,0.0336,-0.3176
5.301,17.57,-22.68,43.4,1.2619,-0.1337,-0.0751
5.319,13.02,-33.04,46.48,0.9501,-0.2069,-0.0361
5.334,-4.69,27.44,29.61,-0.0663,0.2137,-0.9891
5.351,27.3,-8.05,47.74,1.5825,-0.3874,-0.0366
5.368,4.06,-9.03,47.6,0.8339,-0.1859,-0.5368
5.385,21.84,-9.03,68.11,0.8774,-0.1517,-0.3381
5.4,13.65,19.11,68.46,0.3723,-0.2723,-0.14
5.415,24.15,-3.57,86.5899,1.0823,-0.1976,-0.3245
5.43,20.65,6.51,93.73,0.993,-0.1337,-0.3879
5.446,18.48,8.96,89.11,0.9516,-0.1849,-0.3747
5.464,16.94,12.25,69.51,1.0008,-0.3113,-0.3869
5.481,14.21,12.6,46.9,1.0116,-0.3264,-0.4026
5.498,12.18,13.37,26.53,0.9789,-0.3108,-0.4001
5.511,12.25,14.35,16.24,0.9774,-0.2718,-0.4016
5.525,12.32,17.43,12.11,0.9921,-0.2537,-0.3562
5.539,13.79,20.79,9.8,1.0165,-0.2581,-0.3235
5.554,14.21,23.31,7.91,1.0184,-0.2786,-0.2942
5.572,16.31,25.48,6.65,1.0287,-0.2644,-0.2825
5.589,18.27,27.51,4.9699,1.0291,-0.2342,-0.2825
5.604,19.18,28.14,2.17,1.0116,-0.2566,-0.2854
5.62,19.18,27.86,-1.96,1.0257,-0.2723,-0.2806
5.65,18.62,25.1299,-11.13,1.077,-0.281,-0.2825
5.668,17.43,22.54,-16.66,1.0438,-0.3201,-0.2932
5.685,15.4,19.81,-18.83,1.0374,-0.3435,-0.2932
5.703,12.88,16.17,-16.87,1.0467,-0.3616,-0.2898
5.716,11.2,12.39,-12.95,1.0726,-0.3616,-0.2854
5.732,9.1,7.91,-8.1899,1.0818,-0.3591,-0.2723
5.747,6.65,2.73,-3.29,1.0755,-0.3772,-0.2557
5.763,5.53,-2.45,1.54,1.0828,-0.385,-0.241
5.79,1.89,-14.77,13.93,1.0828,-0.3708,-0.2776
5.806,-2.1,-20.72,20.44,1.0599,-0.3943,-0.2869
5.82,-4.41,-26.11,26.32,1.0487,-0.3913,-0.301
5.835,-6.51,-30.8,31.43,1.016,-0.3967,-0.3347
5.851,-9.87,-35.98,34.02,0.9989,-0.4187,-0.3577
5.865,-12.88,-40.46,35.63,1.0067,-0.3996,-0.3596
5.883,-15.54,-46.2,18.1299,1.0213,-0.3986,-0.3611
5.901,-20.93,-52.99,32.97,1.0492,-0.4162,-0.3474
5.918,-26.11,-59.15,26.04,1.0003,-0.4518,-0.3396
5.934,-31.29,-64.68,16.52,0.9613,-0.4714,-0.3064
5.95,-35.77,-68.39,9.31,0.914,-0.4426,-0.2381
5.968,-38.22,-71.61,4.27,0.8466,-0.4016,-0.2044
5.986,-40.39,-72.45,4.27,0.7612,-0.3313,-0.1937
6.004,-40.32,-71.4,5.25,0.6768,-0.3191,-0.1825
6.022,-40.46,-68.53,5.7399,0.606,-0.3235,-0.1693
6.04,-40.6,-64.89,6.3,0.6304,-0.3269,-0.1668
6.058,-38.85,-60.62,7.98,0.606,-0.2015,-0.1473
6.075,-35.91,-54.95,8.68,0.5153,-0.1717,-0.1327
6.09,-31.71,-47.6699,9.1,0.4753,-0.1273,-0.12
6.106,-25.83,-40.74,9.9399,0.488,-0.0966,-0.1298
6.124,-20.58,-31.85,11.13,0.5075,-0.0883,-0.1595
6.142,-13.44,-23.8,11.06,0.5363,-0.1107,-0.1898
6.16,-7.77,-15.4,8.26,0.5572,-0.1478,-0.2498
6.177,-2.45,-8.61,4.41,0.5773,-0.183,-0.2835
6.195,1.54,-2.1,0.42,0.6119,-0.2381,-0.304
6.21,4.06,3.01,-1.47,0.6851,-0.2703,-0.3157
6.226,6.3,6.79,-3.01,0.77,-0.3289,-0.3347
6.24,6.44,9.8,-4.9699,0.7793,-0.3694,-0.342
6.256,5.95,13.86,-9.45,0.7476,-0.4123,-0.3308
6.272,5.32,17.64,-15.05,0.7212,-0.4074,-0.2971
6.29,3.71,23.3799,-20.23,0.6871,-0.4026,-0.2113
6.308,3.01,28.35,-22.89,0.6514,-0.3796,-0.1395
6.326,2.1,36.68,-24.92,0.6509,-0.3591,-0.0771
6.344,-1.82,42.91,-27.3,0.6222,-0.3333,-0.0366
6.36,-1.96,49.91,-29.75,0.6197,-0.3186,0.0209
6.375,-3.85,55.51,-34.09,0.6036,-0.3279,0.0644
6.391,-6.02,62.23,-37.52,0.6426,-0.2976,0.1556
6.407,-6.23,68.6,-42.14,0.6495,-0.2566,0.2181
6.423,-7.35,73.29,-45.71,0.7124,-0.223,0.2718
6.439,-5.81,76.86,-47.32,0.8554,-0.0897,0.2996
6.456,-5.11,79.73,-52.5,0.8505,-0.0966,0.3298
6.473,-6.44,82.18,-65.24,0.8808,-0.1146,0.3215
6.489,-6.51,83.93,-75.88,0.9462,-0.1259,0.304
6.507,-7.63,84.35,-85.96,0.9857,-0.1381,0.2552
6.522,-9.87,84.14,-89.32,1.1072,-0.1537,0.1781
6.54,-13.93,82.95,-89.67,1.1194,-0.2181,0.0966
6.556,-17.08,81.69,-85.26,1.1492,-0.2542,0.0444
6.573,-19.4599,79.31,-72.8,1.2204,-0.2644,-0.0097
6.59,-21.07,75.81,-54.46,1.3332,-0.2069,0.0009
6.606,-21.56,71.33,-36.68,1.362,-0.1805,0.0678
6.621,-21.98,67.13,-24.99,1.3424,-0.1439,0.1093
6.639,-20.09,61.18,-13.44,1.3868,-0.0956,0.1117
6.653,-18.69,55.65,-7.56,1.4625,-0.0634,0.1073
6.671,-18.83,46.9,-2.66,1.4923,-0.0839,0.0849
6.689,-19.04,39.13,-0.91,1.4859,-0.122,0.0649
6.706,-18.55,32.06,-3.22,1.4708,-0.1595,0.019
6.722,-20.44,24.7099,-7.77,1.4664,-0.1478,-0.0527
6.738,-21.77,17.85,-13.65,1.4156,-0.18,-0.0717
6.752,-22.54,12.46,-14.98,1.3498,-0.2117,-0.081
6.77,-24.64,4.41,-10.43,1.3176,-0.1956,-0.1024
6.788,-26.39,-3.57,0.7,1.2883,-0.12,-0.0566
6.803,-23.8,-9.8,12.39,1.3063,-0.0341,-0.0858
6.82,-21.28,-17.64,28.56,1.3166,0.1259,-0.0395
6.838,-14.21,-23.73,41.65,1.1428,0.2156,-0.0366
6.855,-3.22,-25.97,42.28,0.9681,0.2142,-0.1156
6.871,-5.95,-30.59,33.74,1.0111,0.2332,-0.1683
6.885,-6.93,-33.6699,13.44,0.8774,0.0893,-0.0649
6.901,-1.96,-32.41,-17.08,0.9325,0.1093,-0.0639
6.915,0.28,-31.22,-42.91,0.8715,0.2069,-0.2825
6.931,-0.42,-31.99,-60.97,1.116,0.1771,-0.464
6.947,-6.16,-30.8,-79.1,1.2214,0.0517,-0.4104
6.965,-10.85,-28.0,-93.38,0.9472,-0.1332,-0.424
6.982,-10.22,-21.56,-92.96,0.9042,-0.06,-0.4562
7.0,-7.77,-17.29,-80.01,0.934,0.0795,-0.5285
7.014,8.89,-36.2599,-44.1699,0.9735,0.2278,-0.4665
7.03,8.75,19.32,48.3,1.8475,-0.1932,-0.3855
7.048,-17.5,29.47,17.85,2.2662,0.4011,0.0131
7.066,-14.77,3.99,-18.34,1.1004,0.7564,-0.1356
7.08,-7.84,-4.13,-37.8,1.3146,0.5602,-0.101
7.096,-8.75,-25.9,4.48,2.377,0.221,0.0014
7.11,-11.2,0.49,10.92,1.3761,0.039,0.0161
7.126,-0.35,1.19,13.23,1.1062,0.0185,0.1342
7.14,6.86,0.28,25.55,1.0252,0.0976,-0.0253
7.156,3.22,-2.94,39.2,1.1619,0.0678,-0.0756
7.174,3.99,-5.88,58.45,1.1829,0.0073,-0.0673
7.191,9.45,-0.91,78.4,0.4338,0.0756,-0.0668
7.206,9.66,-12.95,77.28,1.3898,-0.0917,-0.122
7.223,9.7299,24.43,76.51,1.1794,-0.0453,0.183
7.242,4.13,12.39,38.85,0.6426,0.1317,-0.1176
7.256,1.19,-5.95,14.28,1.745,-0.1424,-0.2288
7.269,-6.51,-12.11,-34.02,2.7459,0.1293,-0.019
7.287,-5.11,-12.95,-58.1,1.8539,-0.1278,-0.0936
7.3,-3.01,-2.45,-53.34,1.298,-0.0702,-0.0004
7.314,-7.56,-0.63,-17.43,1.4034,-0.1171,-0.0292
7.33,-5.95,-3.64,26.18,1.098,-0.1332,-0.0107
7.359,-12.32,29.19,54.67,0.6792,0.1058,0.0214
7.375,0.14,19.18,14.49,0.2283,0.1005,-0.1049
7.389,-1.89,1.68,-33.6699,1.6577,0.1376,-0.1073
7.404,-0.56,-4.27,-52.57,1.4576,0.0732,-0.0287
7.418,6.16,14.98,-28.84,-0.0048,-0.3581,-0.1405
7.434,-11.06,-12.04,7.63,2.4048,-0.0922,-0.3708
7.452,-4.13,-13.16,31.85,1.9412,-0.1293,-0.12
7.47,-14.84,-9.38,-11.76,0.5836,0.8471,0.1102
7.483,2.8699,-6.23,-21.6299,1.1472,-0.1268,0.0107
7.497,0.91,-4.13,5.7399,1.0262,0.0268,-0.0268
7.512,5.53,-3.71,24.99,1.0662,-0.0331,-0.0146
7.527,3.08,-0.07,3.01,1.0589,-0.1263,-0.0702
7.541,3.29,-1.68,-20.65,1.056,-0.1078,-0.0317
7.557,9.45,2.1,-7.56,1.0257,0.0209,-0.0561
7.572,1.19,-6.93,24.22,0.9925,0.038,0.0058
7.587,1.12,-2.03,-0.56,1.0574,-0.0775,-0.0463
7.602,1.89,-3.92,-12.67,1.0038,-0.0761,-0.017
7.617,3.43,-1.33,13.02,0.9906,0.0156,-0.0112
7.631,1.75,-0.42,5.95,1.0165,-0.081,-0.0566
7.647,4.83,-2.66,-11.6899,1.0262,-0.0976,-0.0263
7.662,4.69,-1.26,4.48,1.0287,-0.0122,-0.0273
7.676,5.18,-0.84,7.42,1.0272,-0.078,-0.0414
7.691,2.8,-3.01,-10.43,1.0365,-0.0927,-0.0307
7.708,0.91,-1.47,-1.05,1.0169,-0.0453,-0.0366
7.738,1.54,-0.7,-7.14,1.0096,-0.1015,-0.0224
7.755,2.1,-2.03,-1.33,1.0155,-0.0527,-0.0292
7.771,2.8699,-1.4,2.38,1.0213,-0.0473,-0.037
7.787,1.4,-0.77,3.5,1.0165,-0.0468,-0.0414
7.805,2.52,-1.68,0.0,1.0301,-0.0453,-0.0307
7.823,3.22,-1.26,2.8699,1.0316,-0.0409,-0.0312
7.841,4.34,-1.4,-3.22,1.0326,-0.0761,-0.0356
7.859,2.8699,-1.54,1.47,1.0233,-0.0488,-0.0287
7.876,2.17,-1.75,0.84,1.0233,-0.0273,-0.0273
7.891,3.29,-1.4,-1.12,1.0238,-0.0575,-0.0326
7.909,2.03,-1.54,-0.28,1.0228,-0.0478,-0.0307
7.922,2.1,-1.61,1.47,1.0243,-0.0312,-0.0312
7.939,2.38,-1.54,0.91,1.0238,-0.0375,-0.0307
7.955,2.52,-1.4,-0.35,1.0257,-0.0419,-0.0346
7.971,2.31,-1.54,-0.35,1.0267,-0.0463,-0.0341
7.989,2.38,-1.47,0.07,1.0238,-0.0473,-0.0346
8.004,2.24,-1.54,0.21,1.0262,-0.0434,-0.0326
8.022,2.24,-1.54,0.35,1.0243,-0.0424,-0.0331
8.04,2.17,-1.54,0.35,1.0233,-0.0424,-0.0341
8.057,2.31,-1.47,0.35,1.0262,-0.0429,-0.0336
8.075,2.38,-1.54,0.21,1.0272,-0.0439,-0.0346
8.093,2.45,-1.54,0.14,1.0247,-0.0409,-0.0317
8.109,2.31,-1.54,0.21,1.0262,-0.0444,-0.0341
8.127,2.52,-1.54,0.07,1.0243,-0.0419,-0.0326
8.143,2.31,-1.54,0.07,1.0243,-0.0414,-0.0326
8.161,2.38,-1.54,0.21,1.0243,-0.0448,-0.0336
8.179,2.31,-1.54,0.21,1.0252,-0.0463,-0.0322
8.195,2.38,-1.47,0.14,1.0257,-0.0444,-0.0336
8.213,2.31,-1.47,0.07,1.0243,-0.0424,-0.0336
8.231,2.31,-1.54,0.14,1.0267,-0.0424,-0.0341
8.249,2.1,-1.4,0.14,1.0247,-0.0439,-0.0331
8.267,2.24,-1.4,0.07,1.0243,-0.0424,-0.0341
8.282,2.31,-1.54,0.21,1.0257,-0.0448,-0.0331
8.3,2.31,-1.54,0.07,1.0252,-0.0439,-0.0331
8.317,2.52,-1.47,0.07,1.0243,-0.0439,-0.0341
8.335,2.38,-1.54,0.14,1.0243,-0.0434,-0.0331
8.351,2.38,-1.47,0.14,1.0243,-0.0419,-0.0336
8.368,2.52,-1.47,0.07,1.0252,-0.0439,-0.0326
8.385,2.45,-1.54,0.14,1.0247,-0.0424,-0.0346
8.401,2.38,-1.47,0.14,1.0247,-0.0429,-0.0322
8.419,2.24,-1.47,0.07,1.0252,-0.0424,-0.0312
8.436,2.38,-1.54,0.21,1.0233,-0.0439,-0.0341
8.453,2.45,-1.54,0.14,1.0272,-0.0444,-0.0351
8.469,2.31,-1.47,0.0,1.0247,-0.0434,-0.0331
8.484,2.38,-1.4,0.14,1.0243,-0.0434,-0.0317
8.502,2.31,-1.47,0.07,1.0247,-0.0429,-0.0326
8.52,2.45,-1.54,0.21,1.0257,-0.0414,-0.0341
8.538,2.24,-1.54,0.14,1.0252,-0.0448,-0.0356
8.556,2.31,-1.47,0.14,1.0272,-0.0439,-0.0317
8.574,2.38,-1.47,0.07,1.0257,-0.0448,-0.0317
8.589,2.38,-1.47,0.14,1.0252,-0.0434,-0.0322
8.606,2.59,-1.47,0.14,1.0272,-0.0419,-0.0322
8.624,2.31,-1.47,0.07,1.0233,-0.0434,-0.0331
8.641,2.52,-1.47,0.14,1.0247,-0.0429,-0.0336
8.659,2.45,-1.54,0.28,1.0243,-0.0453,-0.0331
8.676,2.31,-1.4,0.14,1.0257,-0.0434,-0.0336
8.693,2.45,-1.47,0.14,1.0243,-0.0419,-0.0331
8.706,2.31,-1.4,0.14,1.0257,-0.0448,-0.0341
8.724,2.45,-1.54,0.14,1.0233,-0.0448,-0.0346
8.739,2.45,-1.47,0.14,1.0247,-0.0424,-0.0331
8.755,2.45,-1.47,0.07,1.0247,-0.0424,-0.0326
8.783,2.38,-1.54,0.14,1.0243,-0.0434,-0.0331
8.798,2.31,-1.47,0.21,1.0252,-0.0439,-0.0326
8.813,2.59,-1.47,0.21,1.0262,-0.0424,-0.0336
8.829,2.45,-1.47,0.14,1.0247,-0.0444,-0.0326
8.847,2.73,-1.47,0.14,1.0257,-0.0424,-0.0326
8.865,2.31,-1.47,0.21,1.0247,-0.0444,-0.0312
8.88,2.45,-1.47,0.28,1.0272,-0.0448,-0.0317
8.896,2.38,-1.54,0.07,1.0233,-0.0409,-0.0341
8.913,2.31,-1.54,0.07,1.0247,-0.0448,-0.0326
8.929,2.17,-1.54,0.14,1.0233,-0.0448,-0.0346
8.945,2.38,-1.47,0.07,1.0233,-0.0444,-0.0331
8.961,2.52,-1.47,0.14,1.0262,-0.0439,-0.0336
8.978,2.45,-1.47,0.28,1.0282,-0.0448,-0.0341
8.994,2.52,-1.47,0.14,1.0243,-0.0434,-0.0336
9.01,2.38,-1.47,0.14,1.0252,-0.0458,-0.0322
9.028,2.38,-1.4,0.14,1.0262,-0.0424,-0.0351
9.046,2.38,-1.4,0.0,1.0243,-0.0439,-0.0326
9.063,2.24,-1.47,0.14,1.0247,-0.0429,-0.037
9.077,2.45,-1.54,0.07,1.0247,-0.0444,-0.0331
9.094,2.45,-1.47,0.14,1.0243,-0.0424,-0.0336
9.111,2.31,-1.47,0.21,1.0252,-0.0419,-0.0336
9.126,2.59,-1.47,0.14,1.0238,-0.0424,-0.0331
9.143,2.45,-1.47,0.14,1.0257,-0.0429,-0.0317
9.158,2.24,-1.47,0.28,1.0257,-0.0448,-0.0326
9.173,2.38,-1.47,0.0,1.0247,-0.0414,-0.0326
9.191,2.38,-1.47,0.07,1.0262,-0.0429,-0.0331
9.209,2.45,-1.54,0.14,1.0257,-0.0448,-0.0331
9.223,2.45,-1.47,0.21,1.0247,-0.0453,-0.0341
9.241,2.45,-1.47,0.28,1.0257,-0.0434,-0.0336
9.259,2.45,-1.54,0.21,1.0267,-0.0429,-0.0336
9.277,2.45,-1.54,0.21,1.0247,-0.0448,-0.0336
9.293,2.45,-1.54,0.14,1.0238,-0.0424,-0.0356
9.309,2.52,-1.47,0.07,1.0247,-0.0439,-0.0322
9.324,2.24,-1.54,0.0,1.0233,-0.0429,-0.0351
9.342,2.45,-1.47,0.28,1.0277,-0.0419,-0.0351
9.36,2.24,-1.47,0.07,1.0243,-0.0448,-0.0326
9.377,2.38,-1.54,0.21,1.0243,-0.0429,-0.0326
9.393,2.38,-1.54,0.14,1.0267,-0.0439,-0.0331
9.407,2.38,-1.47,0.07,1.0247,-0.0434,-0.0336
9.422,2.45,-1.47,0.21,1.0247,-0.0453,-0.0336
9.44,2.66,-1.33,0.28,1.0238,-0.0448,-0.0346
9.458,2.45,-1.54,0.07,1.0238,-0.0434,-0.0361
9.474,2.31,-1.47,0.07,1.0243,-0.0453,-0.0341
9.492,2.38,-1.54,0.07,1.0238,-0.0424,-0.0351
9.505,2.45,-1.4,0.07,1.0267,-0.0424,-0.0326
9.519,2.59,-1.47,0.21,1.0252,-0.0444,-0.0336
9.536,2.45,-1.54,0.14,1.0243,-0.0419,-0.0346
9.552,2.52,-1.54,0.14,1.0218,-0.0429,-0.0341
9.567,2.31,-1.54,0.28,1.0247,-0.0424,-0.0336
9.581,2.38,-1.47,0.21,1.0247,-0.0439,-0.0341
9.609,2.45,-1.47,0.14,1.0243,-0.0458,-0.0331
9.627,2.45,-1.47,0.14,1.0262,-0.0424,-0.0336
9.64,2.59,-1.54,0.07,1.0243,-0.0434,-0.0351
9.654,2.45,-1.47,0.14,1.0247,-0.0424,-0.0366
9.67,2.31,-1.47,0.07,1.0247,-0.0414,-0.0336
9.687,2.31,-1.54,0.14,1.0243,-0.0444,-0.0346
9.702,2.45,-1.47,0.21,1.0247,-0.0429,-0.0331
9.717,2.52,-1.4,0.14,1.0252,-0.0434,-0.0361
9.735,2.52,-1.47,0.07,1.0267,-0.0434,-0.0326
9.749,2.45,-1.47,0.28,1.0267,-0.0419,-0.0341
9.763,2.52,-1.4,0.21,1.0252,-0.0458,-0.0326
9.777,2.38,-1.47,0.07,1.0262,-0.0424,-0.0322
9.791,2.24,-1.47,0.14,1.0252,-0.0429,-0.0346
9.823,2.31,-1.47,0.0,1.0282,-0.0429,-0.0356
9.839,2.45,-1.47,0.14,1.0243,-0.0453,-0.0341
9.857,2.52,-1.47,0.14,1.0243,-0.0444,-0.0351
9.872,2.38,-1.47,0.07,1.0262,-0.0434,-0.0351
9.89,2.45,-1.47,0.21,1.0257,-0.0458,-0.0346
9.908,2.38,-1.54,0.07,1.0277,-0.0429,-0.0341
9.923,2.45,-1.47,0.14,1.0233,-0.0434,-0.0341
9.939,2.52,-1.54,0.21,1.0252,-0.0434,-0.0331
9.955,2.45,-1.47,0.07,1.0277,-0.0424,-0.0331
9.969,2.38,-1.4,0.14,1.0243,-0.0444,-0.0326
9.987,2.45,-1.47,0.14,1.0252,-0.0444,-0.0317
10.005,2.38,-1.47,0.14,1.0252,-0.0448,-0.0346
10.02,2.38,-1.47,0.14,1.0238,-0.0444,-0.0351
10.036,2.38,-1.54,0.21,1.0257,-0.0444,-0.0346
10.05,2.38,-1.47,0.14,1.0267,-0.0458,-0.0341
10.066,2.38,-1.4,0.07,1.0262,-0.0444,-0.0351
10.08,2.38,-1.47,0.0,1.0262,-0.0448,-0.0341
10.096,2.45,-1.47,0.14,1.0243,-0.0434,-0.0331
10.113,2.52,-1.54,0.07,1.0252,-0.0434,-0.0351
10.13,2.45,-1.4,0.21,1.0238,-0.0439,-0.0341
10.146,2.38,-1.54,0.21,1.0262,-0.0448,-0.0356
10.162,2.45,-1.47,0.14,1.0247,-0.0439,-0.0346
10.178,2.24,-1.47,0.07,1.0247,-0.0424,-0.0326
10.194,2.31,-1.47,0.07,1.0252,-0.0448,-0.0341
10.209,2.45,-1.54,0.07,1.0247,-0.0429,-0.0336
10.226,2.24,-1.47,0.14,1.0262,-0.0439,-0.0336
10.244,2.31,-1.47,0.07,1.0252,-0.0448,-0.0341
10.261,2.31,-1.54,0.14,1.0247,-0.0429,-0.0336
10.279,2.31,-1.47,0.14,1.0257,-0.0453,-0.0312
10.295,2.38,-1.47,0.07,1.0247,-0.0444,-0.0346
10.313,2.24,-1.54,0.0,1.0247,-0.0448,-0.0336
10.328,2.31,-1.47,0.14,1.0257,-0.0424,-0.0356
10.344,2.31,-1.47,0.07,1.0262,-0.0429,-0.0341
10.36,2.38,-1.47,0.14,1.0243,-0.0434,-0.0341
10.374,2.38,-1.54,0.07,1.0252,-0.0434,-0.0351
10.391,2.38,-1.47,0.28,1.0238,-0.0424,-0.0317
10.409,2.31,-1.47,0.14,1.0257,-0.0424,-0.0322
10.427,2.38,-1.54,0.14,1.0252,-0.0439,-0.0336
10.444,2.31,-1.47,0.07,1.0247,-0.0439,-0.0346
10.462,2.45,-1.54,0.14,1.0257,-0.0434,-0.0336
10.476,2.31,-1.54,0.07,1.0238,-0.0448,-0.0341
10.491,2.52,-1.47,0.14,1.0252,-0.0444,-0.0341
10.506,2.38,-1.54,0.07,1.0257,-0.0434,-0.0351
10.524,2.24,-1.47,0.14,1.0257,-0.0429,-0.0326
10.542,2.45,-1.47,0.14,1.0238,-0.0434,-0.0331
10.557,2.38,-1.47,0.0,1.0228,-0.0434,-0.037
10.575,2.45,-1.47,0.14,1.0282,-0.0439,-0.0336
10.59,2.59,-1.47,0.14,1.0247,-0.0434,-0.0356
10.606,2.52,-1.4,0.07,1.0252,-0.0439,-0.0331
10.62,2.52,-1.47,0.14,1.0272,-0.0439,-0.0336
10.636,2.38,-1.4,0.14,1.0252,-0.0453,-0.0351
10.65,2.38,-1.47,0.14,1.0252,-0.0429,-0.0356
10.666,2.45,-1.4,0.07,1.0257,-0.0439,-0.0326
10.684,2.24,-1.47,0.21,1.0272,-0.0434,-0.0336
10.7,2.24,-1.54,0.14,1.0262,-0.0434,-0.0336
10.718,2.38,-1.47,0.21,1.0262,-0.0444,-0.0366
10.731,2.45,-1.47,0.0,1.0247,-0.0424,-0.0336
10.745,2.31,-1.54,0.14,1.0247,-0.0429,-0.0341
10.76,2.45,-1.54,0.14,1.0238,-0.0444,-0.0336
10.774,2.24,-1.47,0.28,1.0257,-0.0439,-0.0366
10.806,2.38,-1.47,0.14,1.0252,-0.0448,-0.0351
10.821,2.52,-1.47,0.21,1.0247,-0.0448,-0.0351
10.837,2.17,-1.4,0.07,1.0252,-0.0419,-0.0351
10.855,2.17,-1.54,0.07,1.0247,-0.0444,-0.0346
10.871,2.24,-1.47,0.14,1.0262,-0.0429,-0.0356
10.889,2.52,-1.47,0.14,1.0238,-0.0439,-0.0336
10.905,2.45,-1.47,0.07,1.0247,-0.0439,-0.0336
10.923,2.52,-1.47,0.14,1.0262,-0.0414,-0.0346
10.941,2.45,-1.47,0.14,1.0247,-0.0434,-0.0356
10.958,2.45,-1.47,0.07,1.0262,-0.0424,-0.0341
10.973,2.38,-1.4,0.07,1.0252,-0.0434,-0.0356
10.988,2.38,-1.54,0.14,1.0243,-0.0434,-0.0366
11.004,2.38,-1.47,0.07,1.0267,-0.0458,-0.0341
11.022,2.38,-1.47,0.14,1.0267,-0.0448,-0.0356
11.04,2.38,-1.47,0.14,1.0233,-0.0419,-0.0331
11.058,2.31,-1.54,0.07,1.0243,-0.0448,-0.0361
11.074,2.38,-1.47,0.14,1.0243,-0.0444,-0.0336
11.091,2.31,-1.47,0.0,1.0252,-0.0434,-0.0341
11.105,2.31,-1.47,0.14,1.0238,-0.0434,-0.0346
11.122,2.24,-1.47,0.07,1.0267,-0.0448,-0.0361
11.136,2.38,-1.47,0.14,1.0247,-0.0429,-0.0351
11.152,2.31,-1.54,0.07,1.0262,-0.0434,-0.0351
11.169,2.38,-1.54,0.07,1.0252,-0.0434,-0.0336
11.187,2.45,-1.47,0.0,1.0257,-0.0439,-0.0336
11.205,2.38,-1.54,0.14,1.0252,-0.0444,-0.0351
11.223,2.45,-1.47,0.14,1.0252,-0.0444,-0.0346
11.241,2.45,-1.47,0.0,1.0262,-0.0419,-0.0326
11.256,2.31,-1.47,0.07,1.0247,-0.0444,-0.0346
11.274,2.45,-1.4,0.07,1.0243,-0.0434,-0.0346
11.292,2.52,-1.4,0.14,1.0272,-0.0448,-0.0346
11.31,2.45,-1.4,0.07,1.0262,-0.0453,-0.0351
11.323,2.24,-1.47,0.21,1.0267,-0.0448,-0.0351
11.339,2.38,-1.47,0.21,1.0257,-0.0444,-0.0341
11.353,2.38,-1.47,0.14,1.0252,-0.0453,-0.0351
11.368,2.31,-1.4,0.28,1.0243,-0.0439,-0.0336
11.383,2.38,-1.54,0.07,1.0243,-0.0444,-0.0351
11.401,2.38,-1.4,0.07,1.0238,-0.0424,-0.0331
11.415,2.31,-1.54,0.21,1.0257,-0.0448,-0.0356
11.433,2.45,-1.47,0.07,1.0247,-0.0444,-0.0346
11.449,2.31,-1.47,0.14,1.0277,-0.0434,-0.0351
11.463,2.52,-1.47,0.14,1.0262,-0.0424,-0.0346
11.481,2.31,-1.47,0.14,1.0243,-0.0458,-0.0336
11.495,2.31,-1.47,0.14,1.0252,-0.0419,-0.0341
11.513,2.52,-1.47,0.07,1.0252,-0.0448,-0.0351
11.527,2.24,-1.47,0.14,1.0272,-0.0429,-0.0346
11.541,2.52,-1.47,0.14,1.0233,-0.0448,-0.0351
11.555,2.31,-1.4,0.07,1.0262,-0.0429,-0.0351
11.57,2.45,-1.47,0.07,1.0252,-0.0439,-0.0346
11.584,2.38,-1.54,0.07,1.0252,-0.0453,-0.0346
11.6,2.45,-1.4,0.14,1.0252,-0.0439,-0.0341
11.614,2.24,-1.47,0.0,1.0267,-0.0439,-0.0331
11.628,2.45,-1.4,0.14,1.0267,-0.0444,-0.0341
11.656,2.31,-1.54,0.14,1.0228,-0.0444,-0.0366
11.674,2.24,-1.47,0.07,1.0228,-0.0448,-0.0322
11.691,2.45,-1.47,0.07,1.0257,-0.0453,-0.0322
11.706,2.24,-1.54,0.21,1.0252,-0.0444,-0.0346
11.724,2.45,-1.47,0.07,1.0252,-0.0444,-0.0351
11.742,2.24,-1.47,0.14,1.0257,-0.0434,-0.0346
11.76,2.45,-1.47,0.14,1.0277,-0.0439,-0.0341
11.773,2.45,-1.47,0.0,1.0247,-0.0453,-0.0336
11.791,2.31,-1.54,0.07,1.0243,-0.0434,-0.0366
11.809,2.24,-1.47,0.0,1.0262,-0.0434,-0.0351
11.824,2.38,-1.47,0.14,1.0247,-0.0453,-0.0346
11.84,2.59,-1.47,0.07,1.0247,-0.0439,-0.0341
11.858,2.38,-1.47,0.07,1.0238,-0.0444,-0.0361
11.874,2.31,-1.47,0.14,1.0262,-0.0444,-0.0356
11.891,2.52,-1.47,0.14,1.0252,-0.0453,-0.0361
11.909,2.31,-1.47,0.14,1.0243,-0.0463,-0.0356
11.927,2.45,-1.47,0.07,1.0243,-0.0444,-0.0351
11.943,2.45,-1.4,0.14,1.0272,-0.0429,-0.0331
11.961,2.38,-1.4,0.07,1.0247,-0.0429,-0.0375
11.979,2.45,-1.47,0.14,1.0247,-0.0424,-0.0346
11.997,2.59,-1.47,0.14,1.0233,-0.0429,-0.0341
12.012,2.45,-1.47,0.14,1.0247,-0.0448,-0.0356
12.03,2.38,-1.47,0.21,1.0252,-0.0444,-0.0341
12.048,2.38,-1.54,0.14,1.0252,-0.0444,-0.0361
12.066,2.31,-1.4,0.0,1.0247,-0.0434,-0.037
12.083,2.45,-1.47,0.14,1.0243,-0.0444,-0.0351
12.101,2.38,-1.47,0.14,1.0243,-0.0444,-0.0346
12.119,2.24,-1.47,0.14,1.0262,-0.0453,-0.0336
12.137,2.24,-1.47,0.07,1.0257,-0.0439,-0.0326
12.151,2.31,-1.47,0.07,1.0252,-0.0444,-0.0341
12.169,2.38,-1.47,0.07,1.0262,-0.0434,-0.0351
12.185,2.31,-1.4,0.07,1.0257,-0.0444,-0.0361
12.203,2.45,-1.47,0.21,1.0233,-0.0448,-0.0326
12.219,2.45,-1.47,0.14,1.0252,-0.0439,-0.0346
12.234,2.31,-1.54,0.21,1.0252,-0.0444,-0.0331
12.25,2.45,-1.47,0.14,1.0223,-0.0424,-0.0351
12.268,2.31,-1.47,0.14,1.0233,-0.0448,-0.0351
12.286,2.52,-1.47,0.14,1.0238,-0.0448,-0.0336
12.304,2.45,-1.54,0.0,1.0233,-0.0439,-0.0341
12.321,2.31,-1.47,0.07,1.0247,-0.0453,-0.0341
12.337,2.38,-1.4,0.07,1.0252,-0.0424,-0.037
12.353,2.38,-1.47,-17.85,1.0252,-0.0434,-0.0351
12.369,2.24,-1.47,0.14,1.0267,-0.0463,-0.0341
12.384,2.38,-1.4,0.14,1.0257,-0.0434,-0.0346
12.402,2.38,-1.47,0.14,1.0247,-0.0448,-0.0346
12.42,2.52,-1.47,0.14,1.0252,-0.0439,-0.0385
12.438,2.38,-1.47,0.14,1.0238,-0.0453,-0.0346
12.456,2.38,-1.47,0.14,1.0257,-0.0424,-0.0351
12.474,2.31,-1.47,0.21,1.0252,-0.0444,-0.0356
12.489,2.38,-1.47,0.21,1.0238,-0.0444,-0.0361
12.506,2.38,-1.4,0.14,1.0262,-0.0424,-0.0341
12.524,2.31,-1.54,0.14,1.0272,-0.0448,-0.0356
12.542,2.45,-1.54,0.07,1.0257,-0.0439,-0.0356
12.558,2.45,-1.47,0.07,1.0223,-0.0444,-0.0351
12.571,2.38,-1.47,0.0,1.0247,-0.0434,-0.0351
12.585,2.45,-1.54,0.07,1.0247,-0.0453,-0.0341
12.602,2.31,-1.47,0.07,1.0233,-0.0414,-0.0351
12.618,2.24,-1.47,0.14,1.0252,-0.0463,-0.0346
12.646,2.52,-1.47,0.21,1.0238,-0.0463,-0.0326
12.661,2.45,-1.47,0.21,1.0262,-0.0424,-0.0341
12.676,2.38,-1.47,0.21,1.0252,-0.0444,-0.0346
12.692,2.31,-1.47,0.21,1.0247,-0.0424,-0.0351
12.706,2.45,-1.4,0.14,1.0243,-0.0409,-0.0326
12.723,2.52,-1.54,0.0,1.0252,-0.0409,-0.0336
12.741,2.38,-1.47,0.07,1.0247,-0.0448,-0.0346
12.758,2.66,-1.47,0.14,1.0247,-0.0424,-0.0346
12.773,2.45,-1.47,0.14,1.0267,-0.0453,-0.0331
12.789,2.52,-1.47,0.14,1.0247,-0.0448,-0.0346
12.803,2.38,-1.47,0.07,1.0252,-0.0434,-0.0346
12.819,2.45,-1.47,0.14,1.0262,-0.0424,-0.0346
12.834,2.45,-1.47,0.07,1.0262,-0.0429,-0.0346
12.85,2.38,-1.47,0.14,1.0262,-0.0439,-0.0361
12.865,2.38,-1.47,0.0,1.0262,-0.0434,-0.0336
12.879,2.45,-1.47,0.07,1.0257,-0.0444,-0.0361
12.897,2.45,-1.47,0.07,1.0238,-0.0439,-0.0336
12.915,2.31,-1.54,0.14,1.0262,-0.0448,-0.0331
12.933,2.45,-1.54,0.07,1.0243,-0.0453,-0.0336
12.949,2.45,-1.47,0.0,1.0257,-0.0453,-0.0361
12.967,2.38,-1.47,0.14,1.0243,-0.0444,-0.037
12.985,-3.22,-4.83,7.35,1.0189,-0.0068,-0.0214
12.999,6.3,0.0,0.21,1.0247,-0.0634,-0.0278
13.017,2.8699,-0.98,-2.03,1.0291,-0.0468,-0.0361
13.035,2.8699,-1.47,-0.07,1.0291,-0.0585,-0.0385
13.052,2.17,-1.68,-0.28,1.0247,-0.0492,-0.0375
13.068,2.45,-1.47,-0.35,1.0262,-0.0434,-0.037
13.086,4.06,-1.47,0.35,1.0277,-0.0439,-0.039
13.104,3.92,-2.03,-2.66,1.0228,-0.0419,-0.0297
13.119,4.55,-1.61,-8.26,1.0233,-0.0468,-0.0366
13.137,3.99,-1.26,3.57,1.0287,-0.079,-0.0414
13.152,-1.12,-1.05,0.21,1.0223,-0.0668,-0.0229
13.169,-0.63,-2.31,2.1,1.0223,-0.0307,-0.0375
13.187,0.21,-1.82,4.06,1.0223,-0.0439,-0.0375
13.201,3.15,-1.68,-0.7,1.0218,-0.0351,-0.0317
13.219,5.25,-2.24,-1.61,1.0223,-0.0736,-0.0185
13.237,10.08,-4.41,-4.9699,1.0223,-0.0102,-0.0234
13.251,2.59,-2.66,6.79,1.0213,-0.0068,-0.0248
13.267,4.41,-0.77,-2.52,1.0179,-0.0678,-0.0395
13.283,4.55,-0.98,-7.98,1.0228,-0.0546,-0.0361
13.299,6.44,-1.96,-4.76,1.0233,-0.0322,-0.0366
13.317,2.1,-1.47,-0.84,1.0194,-0.0204,-0.0283
13.335,2.66,-1.19,0.35,1.0223,-0.0292,-0.0307
13.352,1.4,-1.05,0.14,1.0208,-0.0258,-0.0322
13.366,2.1,-0.56,-1.26,1.0262,-0.0458,-0.0366
13.384,-0.42,-2.66,5.39,1.0257,-0.0214,-0.0258
13.402,2.8,-0.28,-1.82,1.0326,-0.0522,-0.0336
13.418,-3.78,-1.26,3.92,1.1482,-0.1942,-0.0551
13.436,-2.45,-8.4,1.19,1.6108,-0.203,-0.0453
13.454,-0.77,-18.9,4.9699,1.7455,0.1307,-0.0575
13.472,1.33,-27.02,5.81,1.7148,0.1542,0.0366
13.49,5.67,-32.7599,-10.29,1.6133,-0.0287,0.0649
13.506,2.31,-40.18,1.89,1.726,-0.162,-0.0605
13.523,2.03,-50.33,12.6,1.5372,-0.2391,0.0107
13.539,-2.03,-52.5,11.06,1.1638,-0.2342,-0.0492
13.557,-3.57,-51.87,-3.29,0.6348,-0.2361,-0.2225
13.575,-7.56,-63.98,4.69,1.9607,-0.1444,-0.2186
13.592,-8.4,-59.99,5.95,1.3927,-0.1966,-0.0458
13.609,-10.71,-70.63,16.87,1.3629,-0.1556,-0.222
13.623,-9.7299,-72.8,31.92,1.6025,0.0063,-0.2688
13.64,-7.42,-75.39,49.28,1.3337,-0.1678,-0.3254
13.656,-7.28,-70.91,65.1,1.1799,0.179,-0.3742
13.671,-7.42,-94.99,76.0199,2.4224,-0.1054,-0.4845
13.686,-14.14,-92.12,75.25,1.6699,0.0888,-0.3093
13.703,-9.1,-88.62,72.94,0.4855,0.0126,0.1693
13.718,-7.77,-71.68,59.85,0.0805,-0.0854,-0.0268
13.734,9.52,-99.54,90.93,1.4005,-0.302,-0.5231
13.748,-15.89,-108.5,107.31,1.1907,-0.2635,-0.8388
13.766,4.41,-75.95,84.56,1.1751,-0.5494,-1.1555
13.783,-12.11,-89.88,135.45,0.2093,-0.6329,-0.7017
13.8,-34.37,-125.93,147.63,2.8367,-0.7515,-0.8457
13.816,-35.84,-110.81,184.73,1.2024,-0.4919,-0.5626
13.832,-32.41,-118.58,215.04,0.2244,-0.3952,-0.6797
13.846,-52.22,-141.82,231.14,2.175,-0.4079,-0.7124
13.864,-62.02,-129.78,232.05,0.4265,-0.5392,-0.9906
13.882,-73.57,-110.18,221.2,0.2576,-0.3001,-1.0125
13.9,-81.13,-111.79,208.39,0.4538,-0.2976,-0.9633
13.918,-76.23,-103.53,187.46,0.424,0.0941,-0.894
13.935,-69.0899,-93.17,159.0399,0.3616,0.1781,-0.9535
13.951,-62.51,-84.28,125.65,0.3211,0.1229,-1.0238
13.966,-56.7,-78.75,80.99,0.2957,0.0322,-1.0043
13.984,-50.54,-78.89,39.06,0.3879,-0.0224,-0.8603
14.001,-43.89,-80.29,5.11,0.3596,-0.1073,-0.8027
14.017,-39.13,-81.2699,-18.76,0.2522,-0.1166,-0.7725
14.033,-33.53,-80.57,-36.68,0.1517,-0.1141,-0.8105
14.049,-28.63,-78.68,-49.4199,0.0683,-0.1488,-0.8037
14.066,-25.55,-75.95,-65.73,0.0356,-0.2376,-0.7432
14.079,-25.06,-74.48,-81.2,0.0858,-0.3386,-0.6485
14.097,-26.11,-74.2699,-99.4,0.141,-0.4479,-0.5285
14.115,-30.24,-77.56,-117.18,0.2522,-0.5792,-0.424
14.132,-33.39,-79.66,-124.11,0.1942,-0.5919,-0.3118
14.15,-34.58,-81.76,-119.84,0.221,-0.5202,-0.3137
14.168,-33.39,-82.95,-106.19,0.1927,-0.4987,-0.3259
14.181,-32.13,-83.44,-96.74,0.2186,-0.5138,-0.3196
14.199,-31.85,-83.86,-83.58,0.2049,-0.5602,-0.3469
14.214,-31.36,-82.95,-72.8,0.1293,-0.5836,-0.3416
14.232,-30.8,-80.92,-56.21,0.0644,-0.5338,-0.3142
14.247,-27.93,-77.0,-45.57,0.0741,-0.4806,-0.3245
14.265,-24.15,-73.15,-40.46,0.0897,-0.4406,-0.4392
14.281,-20.23,-70.0,-47.53,0.1044,-0.3869,-0.5485
14.299,-14.35,-66.57,-66.5,0.0976,-0.3874,-0.6568
14.316,-7.21,-62.65,-84.21,0.0732,-0.301,-0.7334
14.333,2.59,-58.66,-107.03,0.0761,-0.2127,-0.7505
14.351,12.88,-55.51,-125.44,0.0902,-0.1312,-0.7656
14.369,29.4,-49.14,-145.0399,0.0531,-0.0907,-0.8866
14.387,39.7599,-42.84,-157.57,-0.0414,-0.1024,-0.9272
14.405,54.11,-31.01,-166.88,-0.0956,-0.1332,-0.972
14.423,63.84,-20.51,-173.25,-0.079,-0.2156,-0.932
14.439,68.53,-12.67,-181.02,-0.0053,-0.2757,-0.8759
14.456,71.61,-6.93,-188.9299,0.1112,-0.322,-0.833
14.473,73.22,-2.66,-197.96,0.1649,-0.3498,-0.7656
14.489,73.29,0.28,-204.61,0.2147,-0.3586,-0.729
14.505,72.5199,2.66,-207.27,0.2601,-0.3723,-0.7168
14.521,71.19,4.62,-206.36,0.2723,-0.4162,-0.6958
14.539,68.04,6.16,-202.65,0.2757,-0.4533,-0.6753
14.555,64.05,7.98,-194.74,0.2249,-0.4923,-0.6895
14.571,60.27,10.71,-183.19,0.1654,-0.5031,-0.7939
14.587,55.51,13.37,-171.64,0.1381,-0.5133,-0.8842
14.604,50.12,15.82,-156.59,0.1683,-0.5724,-0.9706
14.62,42.91,16.66,-147.84,0.2337,-0.6397,-0.9564
14.638,35.49,15.19,-137.55,0.3201,-0.6334,-0.9081
14.655,28.98,11.76,-126.14,0.364,-0.5851,-0.9374
14.671,24.36,9.59,-112.84,0.3074,-0.5299,-0.9789
14.687,21.28,8.26,-94.22,0.2596,-0.507,-1.0013
14.705,18.2,6.72,-71.54,0.2566,-0.4787,-1.0389
14.723,16.45,4.83,-52.99,0.2742,-0.4362,-1.0423
14.739,15.33,2.8699,-39.9,0.284,-0.3284,-1.0252
14.756,15.61,0.21,-34.23,0.3142,-0.2527,-1.0653
14.773,16.45,-3.15,-37.59,0.343,-0.2249,-1.0755
14.791,16.87,-7.14,-49.4199,0.3664,-0.2488,-1.0584
14.807,16.24,-11.34,-66.22,0.3821,-0.2693,-1.0194
14.821,15.82,-14.84,-80.99,0.3728,-0.2771,-0.9711
14.837,16.03,-19.53,-94.99,0.4084,-0.2498,-0.9091
14.856,17.7099,-24.64,-102.97,0.4494,-0.202,-0.8803
14.871,20.93,-30.24,-106.26,0.4919,-0.2078,-0.8686
14.888,23.66,-34.3,-107.52,0.3864,-0.2,-0.8315
14.904,27.23,-35.84,-104.86,0.2967,-0.1781,-0.8408
14.919,30.94,-36.47,-99.4,0.2347,-0.1346,-0.8549
14.936,36.19,-36.12,-90.51,0.1893,-0.0824,-0.8183
14.953,41.93,-35.7,-82.11,0.1981,-0.0717,-0.7671
14.971,47.18,-35.49,-77.63,0.2303,-0.1351,-0.7266
14.989,49.14,-35.0,-80.5,0.2147,-0.1786,-0.7266
15.007,50.4,-33.6699,-87.71,0.1883,-0.2215,-0.7622
15.024,50.2599,-32.34,-97.58,0.1771,-0.2669,-0.77
15.039,49.91,-31.36,-104.0899,0.1976,-0.2884,-0.751
15.057,48.79,-30.38,-108.78,0.2044,-0.3225,-0.7198
15.075,47.46,-29.47,-107.94,0.2176,-0.3616,-0.6734
15.093,45.78,-28.35,-103.32,0.1942,-0.3874,-0.6475
15.111,42.91,-26.39,-93.17,0.1673,-0.405,-0.6451
15.126,40.6699,-25.06,-81.83,0.1634,-0.4074,-0.6602
15.144,38.43,-23.45,-64.19,0.161,-0.3933,-0.6622
15.159,36.4,-22.61,-50.05,0.2064,-0.3899,-0.6695
15.177,33.53,-23.17,-34.44,0.2483,-0.3996,-0.7139
15.194,30.03,-24.78,-27.09,0.3015,-0.4357,-0.7934
15.21,25.2,-26.67,-24.22,0.2888,-0.485,-0.8759
15.227,20.37,-28.21,-25.1299,0.2854,-0.5094,-0.9447
15.245,15.89,-30.94,-24.64,0.3298,-0.4933,-0.9828
15.263,10.5,-34.65,-19.18,0.4094,-0.386,-1.0257
15.279,9.1,-38.85,-10.85,0.4484,-0.2898,-1.1043
15.294,8.96,-41.44,-3.71,0.4021,-0.2742,-1.1702
15.311,7.84,-43.05,2.73,0.3167,-0.2869,-1.2556
15.328,6.44,-42.4199,3.36,0.2488,-0.2835,-1.4884
15.346,5.04,-39.9,0.98,0.22,-0.2459,-1.4347
15.364,4.48,-38.0099,-2.52,0.2386,-0.1781,-1.4396
15.38,5.25,-35.98,-9.1,0.261,-0.101,-1.4332
15.398,8.05,-33.95,-20.02,0.2596,-0.061,-1.3834
15.416,9.9399,-31.71,-40.46,0.2596,-0.0644,-1.3161
15.433,12.18,-29.33,-65.5899,0.2181,-0.0273,-1.2707
15.45,13.58,-25.76,-97.51,0.1507,-0.1302,-1.1785
15.466,11.9,-20.65,-131.74,0.08,-0.2176,-1.0428
15.483,10.92,-15.26,-156.38,0.1234,-0.1444,-0.9442
15.499,11.6899,-12.04,-166.0399,0.1732,-0.1234,-0.8613
15.516,14.42,-8.89,-162.82,0.1766,-0.0356,-0.7622
15.533,18.34,-6.37,-152.53,0.2249,0.0004,-0.7271
15.549,22.89,-4.27,-139.37,0.2264,-0.0175,-0.6934
15.564,26.25,-2.45,-120.19,0.2078,-0.0439,-0.6636
15.582,28.77,0.21,-97.72,0.182,-0.0785,-0.6431
15.6,31.5,2.8,-70.91,0.161,-0.1366,-0.6773
15.616,32.7599,5.32,-50.12,0.1566,-0.1678,-0.6939
15.632,33.6,7.07,-26.25,0.1864,-0.1893,-0.7232
15.646,33.39,7.7,-8.4,0.2269,-0.2269,-0.7524
15.663,31.99,7.14,10.43,0.263,-0.2459,-0.8256
15.681,30.17,6.58,26.53,0.2644,-0.2879,-0.8832
15.696,27.51,5.81,40.46,0.2932,-0.3596,-0.9257
15.714,23.31,3.99,53.76,0.3455,-0.385,-1.0023
15.732,19.74,1.26,69.58,0.3757,-0.3547,-1.0989
15.75,16.8,-1.33,83.86,0.4079,-0.3196,-1.157
15.766,14.91,-3.43,96.6,0.3694,-0.2859,-1.1956
15.782,13.3,-3.99,105.35,0.3167,-0.2713,-1.2131
15.8,11.06,-3.64,108.43,0.2713,-0.2732,-1.1931
15.818,8.61,-1.26,105.14,0.1439,-0.2967,-1.1067
15.836,5.81,2.24,96.67,0.1263,-0.2971,-1.0204
15.852,3.08,4.62,83.44,0.1483,-0.3235,-0.9242
15.87,-0.84,5.95,67.76,0.2269,-0.3523,-0.8603
15.886,-4.2,5.67,52.64,0.2791,-0.3694,-0.8335
15.904,-7.63,4.83,38.08,0.3074,-0.3352,-0.8627
15.919,-9.31,3.71,29.75,0.3518,-0.302,-0.9296
15.937,-10.29,2.24,23.3799,0.3523,-0.2825,-1.0145
15.955,-10.99,1.96,22.05,0.3137,-0.3211,-1.0355
15.973,-12.6,2.73,24.01,0.263,-0.3538,-0.9711
15.99,-14.49,3.99,28.98,0.2147,-0.3645,-0.8662
16.006,-15.47,6.44,36.68,0.1561,-0.3474,-0.7749
16.023,-16.03,9.17,45.22,0.1405,-0.3215,-0.7207
16.036,-15.82,11.2,51.38,0.1073,-0.3416,-0.609
16.05,-16.94,13.3,54.32,0.1283,-0.344,-0.5421
16.068,-18.34,14.49,55.79,0.1703,-0.3708,-0.4831
16.084,-20.02,14.77,54.18,0.1991,-0.3494,-0.4616
16.098,-21.14,14.42,50.96,0.2191,-0.3279,-0.5001
16.128,-25.06,14.98,41.3,0.1517,-0.4118,-0.5797
16.146,-29.4,16.3799,33.6699,0.0971,-0.4343,-0.6182
16.163,-32.7599,17.99,27.23,0.0805,-0.4104,-0.6636
16.181,-35.49,19.67,22.61,0.0829,-0.4162,-0.7056
16.198,-38.57,21.35,19.95,0.0932,-0.4884,-0.7095
16.215,-42.14,21.28,17.01,0.1605,-0.5377,-0.7119
16.231,-45.85,20.37,11.76,0.1912,-0.5909,-0.7334
16.249,-51.45,17.64,5.11,0.2581,-0.6651,-0.8188
16.265,-56.07,13.58,-1.54,0.3245,-0.6905,-0.9735
16.282,-60.55,7.91,-4.9699,0.3952,-0.6661,-1.1184
16.3,-63.0,1.82,-1.61,0.4148,-0.5221,-1.22
16.314,-60.9,-2.94,6.16,0.3825,-0.3718,-1.2761
16.332,-57.05,-7.28,25.06,0.305,-0.2098,-1.3083
16.35,-45.29,-9.1,39.7599,0.222,-0.1137,-1.3522
16.368,-39.48,-9.45,42.0,0.1625,-0.0971,-1.3644
16.386,-29.4,-10.22,28.98,0.2069,-0.0775,-1.3678
16.403,-22.75,-12.95,4.69,0.3196,-0.0678,-1.3654
16.418,-17.5,-17.22,-27.58,0.4255,-0.0663,-1.3849
16.433,-12.53,-24.08,-59.22,0.5246,-0.1342,-1.4049
16.448,-8.26,-29.75,-91.14,0.5041,-0.2342,-1.3727
16.464,-4.9699,-33.95,-121.24,0.3952,-0.2366,-1.3332
16.481,1.19,-33.81,-139.44,0.1439,-0.2122,-1.2561
16.499,8.26,-28.28,-149.38,-0.0307,-0.1854,-1.1419
16.515,13.37,-20.3,-157.4299,-0.0746,-0.1625,-1.0892
16.532,18.62,-10.71,-165.62,-0.0936,-0.0941,-1.0574
16.55,23.94,-0.91,-164.64,-0.0902,-0.0522,-1.0233
16.567,31.43,9.52,-148.89,-0.1141,0.0097,-0.9086
16.583,40.32,19.53,-125.72,-0.0595,0.0219,-0.7564
16.599,50.12,27.37,-95.41,0.0639,0.0971,-0.7202
16.616,60.06,34.02,-65.17,0.058,0.039,-0.6778
16.632,67.55,39.13,-39.06,0.1302,0.0244,-0.772
16.648,75.81,41.09,-24.99,0.2654,0.0209,-0.9159
16.666,82.6,42.56,-21.07,0.3172,-0.038,-0.8681
16.681,84.42,42.28,-27.86,0.3938,-0.0961,-0.7456
16.699,85.26,41.93,-47.88,0.3869,0.0287,-0.6256
16.715,90.86,47.32,-67.97,0.0356,0.2669,-0.5636
16.73,91.7699,55.3,-85.61,-0.0834,-0.0029,-0.6763
16.748,93.31,60.83,-85.89,0.22,0.1595,-1.0267
16.763,99.4,62.3,-55.44,0.3264,0.2664,-1.0487
16.778,104.93,62.72,-51.31,0.3728,0.2435,-0.9882
16.794,112.98,61.04,-29.54,0.4694,0.2664,-1.0511
16.812,118.16,57.4,-3.43,0.4923,0.081,-1.0545
16.83,120.96,52.85,11.55,0.4982,-0.0297,-1.0184
16.848,120.33,46.2,17.64,0.5895,-0.1019,-1.0008
16.866,114.31,35.35,14.0,0.7207,-0.3093,-0.995
16.882,106.47,24.36,5.25,0.7446,-0.4821,-0.9862
16.898,94.43,15.96,-3.29,0.69,-0.5948,-1.0179
16.914,82.46,7.07,-8.12,0.6914,-0.569,-1.1062
16.93,74.2699,-0.91,-7.49,0.6466,-0.5006,-1.1526
16.948,67.13,-8.54,-0.98,0.6412,-0.4401,-1.1014
16.966,58.52,-17.08,7.21,0.6392,-0.4265,-0.9984
16.981,51.03,-23.8,15.61,0.6251,-0.4079,-0.8901
16.997,45.85,-30.24,25.41,0.569,-0.4167,-0.7983
17.015,40.39,-34.65,34.58,0.547,-0.4577,-0.6583
17.033,30.17,-44.1,45.0099,0.5895,-0.5446,-0.4753
17.051,25.48,-48.5099,55.93,0.5504,-0.5128,-0.3928
17.064,16.8,-53.62,62.65,0.4621,-0.5192,-0.3445
17.082,11.41,-56.07,73.71,0.4289,-0.5724,-0.3045
17.095,4.34,-56.98,81.76,0.3025,-0.5382,-0.303
17.109,-0.77,-56.84,92.19,0.3015,-0.5041,-0.3176
17.123,-5.81,-55.93,104.23,0.2415,-0.5363,-0.2127
17.14,-11.76,-53.06,115.78,0.1712,-0.525,-0.2435
17.155,-16.59,-48.44,125.79,0.1127,-0.5641,-0.2835
17.169,-22.26,-43.89,129.22,0.081,-0.5982,-0.2513
17.186,-28.56,-38.9199,127.96,0.0653,-0.6265,-0.2815
17.203,-35.35,-32.13,121.31,0.0473,-0.691,-0.3279
17.221,-42.91,-26.81,109.55,0.0566,-0.6983,-0.3801
17.239,-49.0,-21.49,91.28,0.0712,-0.7568,-0.4562
17.256,-54.25,-16.3799,74.41,-0.0053,-0.8198,-0.5719
17.273,-59.29,-11.06,58.73,-0.0151,-0.8291,-0.6875
17.289,-60.55,-7.63,46.41,0.0273,-0.7402,-0.7842
17.307,-58.59,-5.81,39.97,0.0971,-0.6705,-0.8505
17.325,-51.66,-6.16,38.71,0.1825,-0.6153,-0.9818
17.343,-43.4,-7.91,38.71,0.1942,-0.6475,-1.1092
17.359,-38.57,-10.01,35.35,0.1922,-0.6719,-1.2034
17.377,-29.05,-13.58,27.65,0.2435,-0.6402,-1.2351
17.395,-22.4,-17.78,17.64,0.2503,-0.5768,-1.2688
17.413,-8.82,-21.6299,7.63,0.1991,-0.6217,-1.5054
17.429,-2.38,-22.54,0.49,0.1034,-0.6802,-1.5908
17.445,5.95,-21.2099,3.15,0.0234,-0.6358,-1.5781
17.461,15.33,-17.78,10.29,-0.0502,-0.6222,-1.4996
17.479,23.94,-13.65,18.41,-0.039,-0.6261,-1.3688
17.496,32.7599,-10.5,19.8799,-0.0556,-0.5421,-1.1765
17.512,42.98,-8.26,13.86,-0.0639,-0.4782,-0.9828
17.53,56.21,-8.1899,-0.21,0.0107,-0.3996,-0.7783
17.548,67.13,-10.64,-28.21,0.0702,-0.3411,-0.5792
17.564,81.06,-13.23,-50.75,0.1366,-0.2322,-0.4567
17.58,91.8399,-16.03,-73.36,0.1556,-0.2347,-0.3713
17.596,105.21,-18.41,-87.57,0.1917,-0.241,-0.3913
17.611,116.9,-19.04,-96.88,0.1849,-0.2152,-0.3977
17.628,131.53,-18.9,-110.46,0.22,-0.1873,-0.3904
17.646,143.2899,-15.4,-132.86,0.1146,-0.1332,-0.4289
17.663,154.84,-7.14,-176.26,0.0024,-0.0209,-0.4645
17.678,163.38,5.95,-224.14,-0.0244,0.0561,-0.447
17.694,171.5,20.51,-287.14,0.0004,0.1424,-0.3762
17.709,174.16,39.2,-381.3599,0.0326,0.1659,-0.3298
17.727,171.57,72.03,-488.46,0.0663,0.1869,-0.3542
17.745,157.5,106.82,-614.39,0.2205,0.3572,-0.2747
17.761,135.8,142.1,-704.9,0.4928,0.424,-0.2845
17.775,108.99,169.96,-778.96,0.7324,0.5333,-0.2405
17.792,72.1,194.32,-840.49,0.9862,0.6627,-0.2361
17.809,33.95,204.82,-873.6,1.3683,0.7471,-0.2561
17.827,-3.99,194.32,-864.15,1.6723,0.5514,-0.342
17.844,-43.19,168.56,-826.49,2.0539,0.0829,-0.4611
17.862,-88.2,123.97,-757.33,2.317,0.2098,-0.6217
17.879,-105.21,77.8399,-722.75,1.7045,0.3064,-0.3821
17.895,-113.82,36.75,-699.1599,1.4044,0.3069,-0.302
17.911,-104.16,-7.28,-672.63,1.769,1.9095,-0.4797
17.927,-57.96,-29.05,-643.7199,0.7598,2.3311,-0.406
17.942,-16.31,-36.75,-621.95,0.3562,2.0832,-0.2264
17.956,18.69,-32.34,-604.38,-0.0385,1.6914,0.0258
17.973,53.83,-15.05,-586.32,-0.1332,1.6421,0.2303
17.987,82.18,0.84,-572.18,-0.3772,1.3771,0.403
18.004,104.37,31.57,-558.81,-0.6475,1.2614,0.4855
18.02,118.3,68.39,-545.37,-0.789,1.1209,0.5953
18.034,124.67,102.2,-525.35,-0.974,0.8476,0.7617
18.049,118.44,138.0399,-498.05,-1.138,0.1761,0.7642
18.063,101.22,171.36,-448.49,-1.1228,-0.1961,0.6329
18.079,71.54,199.2899,-426.93,-1.0609,-0.5953,0.4557
18.097,38.64,213.5,-375.41,-0.3498,-0.3977,-0.0575
18.112,51.31,188.58,-285.46,0.8832,0.9945,-0.7954
18.13,30.52,195.16,-191.38,-0.6378,-0.7559,-0.3611
18.144,24.15,188.44,-99.33,-0.0966,-0.3777,-0.3367
18.162,22.05,177.31,32.41,-0.3738,-0.5211,-0.3884
18.175,26.81,170.66,103.32,-0.5748,-0.3098,-0.3938
18.19,28.7,166.95,162.5399,-0.8564,-0.4128,-0.3498
18.206,31.78,162.5399,199.64,-0.8744,-0.3313,-0.384
18.223,34.02,154.98,210.56,-0.8764,-0.2469,-0.4191
18.241,37.66,144.34,200.76,-0.8388,-0.0688,-0.5265
18.256,41.79,133.42,181.7899,-0.8047,0.0961,-0.7007
18.27,43.96,121.94,158.97,-0.8447,0.1346,-0.7832
18.287,44.87,107.24,137.97,-0.8383,0.1781,-0.8305
18.304,42.63,90.44,127.12,-0.7417,0.1424,-0.953
18.32,41.37,73.71,131.53,-0.752,0.1546,-1.0721
18.333,39.13,60.2,144.41,-0.7285,0.1459,-1.1014
18.349,34.58,48.02,160.9299,-0.7515,0.1503,-1.0696
18.364,29.89,37.94,176.19,-0.7632,0.1532,-1.0657
18.382,23.1,27.23,180.74,-0.7681,0.1356,-1.1487
18.397,14.84,21.2099,168.91,-0.7529,0.2288,-1.2541
18.415,6.3,13.65,130.13,-0.7373,0.3464,-1.3654
18.429,2.8,8.26,91.8399,-0.6851,0.4065,-1.4176
18.446,-0.63,-17.36,51.03,-0.567,0.4162,-1.4727
18.462,-2.94,-11.27,26.53,-0.3923,0.3991,-1.4449
18.48,-4.48,-26.11,7.63,-0.3411,0.3811,-1.338
18.493,-4.76,-34.37,1.89,-0.3772,0.3416,-1.2121
18.511,-5.53,-45.78,5.18,-0.385,0.2903,-1.0423
18.529,-7.7,-53.83,18.55,-0.4113,0.1693,-0.832
18.546,-11.27,-60.06,32.48,-0.4211,0.1,-0.6695
18.562,-16.52,-64.61,41.37,-0.4406,0.0463,-0.5592
18.578,-21.28,-67.83,48.3,-0.4533,0.0068,-0.4782
18.596,-28.21,-70.07,48.09,-0.4543,0.0048,-0.4367
18.613,-33.6699,-71.54,39.2,-0.4367,0.0302,-0.4367
18.63,-37.52,-73.15,22.75,-0.4191,0.059,-0.4284
18.646,-39.83,-75.11,9.8,-0.3879,0.0688,-0.4362
18.664,-40.53,-78.19,-5.67,-0.3513,0.079,-0.5006
18.682,-39.48,-81.2699,-16.17,-0.3552,0.0824,-0.5773
18.699,-35.91,-84.07,-24.7099,-0.3855,0.1195,-0.6466
18.717,-30.38,-86.31,-33.39,-0.4362,0.1747,-0.7134
18.735,-20.51,-87.43,-38.9199,-0.4758,0.244,-0.7881
18.749,-11.76,-88.06,-40.74,-0.4948,0.2669,-0.8369
18.765,-3.22,-87.85,-37.24,-0.528,0.2103,-0.9101
18.78,6.3,-86.5899,-27.37,-0.5646,0.16,-0.9501
18.798,14.63,-83.58,-13.09,-0.6373,0.0907,-0.9164
18.816,20.02,-77.7,3.71,-0.7217,0.0795,-0.9208
18.833,26.53,-71.54,17.43,-0.7837,0.0068,-0.9042
18.85,31.15,-65.5899,31.57,-0.7783,0.0204,-0.914
18.868,36.82,-59.5,46.2,-0.7427,0.0629,-0.911
18.886,41.86,-56.21,54.18,-0.7237,0.1024,-0.9276
18.904,50.33,-49.0,54.18,-0.7676,0.1464,-0.9174
18.922,57.61,-43.33,47.88,-0.7925,0.1615,-0.9286
18.94,62.79,-38.78,40.74,-0.7803,0.1639,-0.9213
18.958,70.8399,-31.5,38.29,-0.7915,0.1566,-0.8686
18.971,77.56,-25.97,39.97,-0.8232,0.1293,-0.8003
18.986,83.0199,-20.51,46.48,-0.7959,0.1224,-0.7032
19.003,88.97,-15.05,60.34,-0.7432,0.099,-0.5441
19.021,94.36,-11.34,79.94,-0.6539,0.0824,-0.3645
19.039,98.35,-7.77,92.26,-0.6246,0.0746,-0.2513
19.056,101.08,-3.15,94.57,-0.7476,0.1083,-0.1737
19.074,103.32,1.05,87.29,-0.7749,0.1683,-0.1517
19.092,108.22,8.05,82.11,-0.71,0.2239,-0.1786
19.109,114.31,9.9399,84.35,-0.5982,0.2825,-0.2171
19.123,122.78,10.64,91.42,-0.5285,0.3484,-0.2293
19.14,131.39,10.57,101.15,-0.549,0.3918,-0.2259
19.156,138.67,10.64,109.13,-0.5641,0.4206,-0.2127
19.174,146.9299,10.29,117.46,-0.5621,0.3899,-0.242
19.192,152.74,9.45,123.27,-0.5533,0.386,-0.2684
19.208,157.4299,9.17,125.79,-0.6319,0.3884,-0.3142
19.226,160.9299,10.92,125.51,-0.6739,0.3884,-0.3796
19.243,163.87,12.81,124.04,-0.7969,0.3289,-0.526
19.261,163.45,15.19,120.26,-0.8305,0.2215,-0.7002
19.279,159.81,19.11,117.25,-0.8823,0.0873,-0.83
19.294,154.14,22.9599,115.15,-0.9584,-0.0624,-0.9628
19.31,146.7899,28.7,112.84,-0.9984,-0.1522,-1.0208
19.327,136.2899,35.07,107.31,-1.0467,-0.1712,-1.0496
19.343,128.73,41.23,96.6,-1.0828,-0.1737,-1.1087
19.359,120.05,48.44,84.98,-1.098,-0.2098,-1.217
19.374,112.49,54.6,71.68,-1.0736,-0.2278,-1.321
19.39,106.12,57.54,64.26,-0.9823,-0.2327,-1.4025
19.403,100.31,57.75,65.94,-0.832,-0.2786,-1.4259
19.418,93.24,54.74,76.23,-0.668,-0.3538,-1.4
19.436,85.75,46.55,96.53,-0.447,-0.4045,-1.3371
19.452,78.26,35.21,117.46,-0.3328,-0.3674,-1.2302
19.47,71.75,23.8,132.51,-0.3489,-0.2605,-1.055
19.487,65.94,13.51,136.15,-0.3352,-0.1688,-0.8993
19.503,60.34,4.06,134.4,-0.3035,-0.1351,-0.7676
19.516,55.23,-4.06,130.76,-0.2718,-0.1205,-0.691
19.532,49.77,-11.27,125.51,-0.2757,-0.1122,-0.6129
19.547,44.38,-18.83,117.67,-0.2649,-0.0951,-0.5612
19.561,38.78,-25.06,110.39,-0.2479,-0.1063,-0.5382
19.577,33.46,-30.31,103.39,-0.2059,-0.0849,-0.5411
19.606,23.24,-44.1699,88.2699,-0.1732,-0.0439,-0.5719
19.623,18.69,-51.24,76.3,-0.1615,-0.0087,-0.5738
19.641,15.89,-59.92,66.57,-0.1278,0.0004,-0.6387
19.658,13.86,-66.99,57.89,-0.1371,-0.0209,-0.6963
19.676,12.6,-73.64,50.4,-0.1337,-0.0244,-0.7856
19.693,10.99,-78.96,42.21,-0.2147,-0.0961,-0.8652
19.709,8.89,-82.18,34.5099,-0.2884,-0.1376,-0.9681
19.726,6.65,-84.63,23.3799,-0.3176,-0.1971,-1.0862
19.742,4.55,-87.08,10.01,-0.322,-0.2278,-1.1882
19.761,3.22,-89.53,-10.85,-0.322,-0.2464,-1.2531
19.778,3.01,-91.98,-38.22,-0.3098,-0.1708,-1.3034
19.794,5.53,-94.36,-78.4,-0.2981,-0.0649,-1.2414
19.812,9.87,-95.97,-130.34,-0.3845,-0.0097,-1.2375
19.825,17.08,-94.57,-175.84,-0.4821,-0.0146,-1.2678
19.839,24.01,-92.05,-213.5,-0.5177,-0.0165,-1.2663
19.856,33.53,-86.5899,-241.5,-0.5197,0.0058,-1.1536
19.874,44.38,-75.88,-269.78,-0.606,0.0287,-1.0306
19.889,52.57,-62.37,-284.2,-0.8344,-0.0112,-0.9921
19.904,60.69,-44.94,-287.7,-0.9828,-0.0868,-1.0028
19.92,64.61,-22.54,-276.85,-1.057,-0.2025,-0.9886
19.935,66.15,-2.66,-260.26,-1.1433,-0.0322,-0.7588
19.95,68.39,19.8799,-240.87,-1.2795,-0.3977,-0.8808
19.965,64.89,42.56,-225.26,-1.1292,-0.243,-0.8964
19.98,59.29,60.48,-212.66,-1.0482,-0.5099,-0.7393
19.995,49.0,75.53,-200.76,-0.8632,-0.6095,-0.4484
20.01,39.62,86.45,-186.76,-0.5626,-0.5241,-0.1708
20.026,32.7599,92.4,-172.55,-0.2971,-0.2264,0.019
20.042,34.5099,100.45,-147.49,-0.5153,0.0292,-0.0336
20.058,31.15,110.18,-113.82,-0.752,-0.4714,-0.1883
20.072,22.75,120.33,-76.51,-0.4182,-0.5724,-0.1537
20.1,21.07,128.17,1.68,-0.5773,-0.1019,-0.2776
20.118,17.64,143.15,52.5,-0.8227,-0.7442,-0.3435
20.136,18.2,152.1799,95.69,-0.6187,-0.3679,-0.3098
20.153,19.25,159.46,135.38,-0.526,-0.5153,-0.3386
20.169,20.86,163.94,170.17,-0.4274,-0.5441,-0.3337
20.187,22.9599,165.34,202.72,-0.3601,-0.5441,-0.4094
20.205,25.27,164.22,219.24,-0.3728,-0.5475,-0.5402
20.223,26.67,162.75,219.94,-0.4143,-0.5436,-0.6456
20.241,27.79,159.95,201.1799,-0.4489,-0.548,-0.7554
20.257,25.41,156.8,169.61,-0.467,-0.566,-0.8422
20.274,19.74,151.97,129.01,-0.4431,-0.6139,-0.9745
20.29,11.76,145.53,87.64,-0.3943,-0.6817,-1.1302
20.308,1.4,134.89,52.0099,-0.3147,-0.7442,-1.1995
20.324,-11.06,125.02,21.77,-0.2849,-0.7373,-1.2053
20.342,-24.85,114.31,-6.51,-0.3015,-0.7612,-1.1819
20.36,-43.47,93.66,-36.12,-0.2898,-0.8037,-1.2458
20.378,-59.78,75.95,-54.74,-0.2103,-0.9213,-1.3376
20.396,-74.55,52.64,-61.46,-0.1332,-1.0228,-1.3844
20.414,-84.56,30.31,-53.9,-0.0204,-0.9603,-1.4337
20.432,-89.39,7.49,-36.68,0.0361,-0.7251,-1.3932
20.446,-89.32,-11.27,-26.53,0.0122,-0.6129,-1.2971
20.464,-83.0899,-34.23,-12.25,0.0488,-0.4055,-1.1838
20.48,-75.18,-49.7,-6.65,-0.0204,-0.3181,-0.9964
20.496,-66.99,-65.1,-7.7,-0.0287,-0.2835,-0.8349
20.514,-59.15,-82.18,-21.98,-0.0849,-0.2674,-0.7041
20.53,-50.68,-95.06,-41.5099,-0.0439,-0.2254,-0.6197
20.548,-42.4199,-108.71,-63.07,-0.0912,-0.2435,-0.5836
20.566,-32.41,-116.06,-83.37,-0.1259,-0.2327,-0.5529
20.584,-15.12,-128.45,-92.4,-0.0858,-0.2034,-0.5592
20.602,-0.42,-135.52,-93.87,-0.0434,-0.1639,-0.5821
20.618,13.58,-141.4,-91.0,-0.0029,-0.222,-0.5919
20.633,24.22,-144.69,-87.85,-0.0244,-0.2796,-0.63
20.648,34.93,-147.21,-83.3,-0.0097,-0.2986,-0.6612
20.664,45.71,-148.19,-80.01,-0.0195,-0.3503,-0.7232
20.682,57.33,-148.26,-78.61,0.0405,-0.284,-0.7798
20.7,69.16,-145.67,-82.25,-0.0082,-0.3259,-0.851
20.716,77.7699,-141.47,-91.63,0.0434,-0.2898,-0.8852
20.73,85.19,-137.2,-106.26,0.0775,-0.3333,-0.9242
20.746,91.91,-130.97,-133.98,0.0527,-0.3479,-0.9613
20.764,96.46,-118.93,-166.88,0.0209,-0.4089,-1.0135
20.781,98.91,-105.7,-198.73,0.0234,-0.4743,-1.0028
20.798,97.86,-90.44,-229.67,-0.0082,-0.5924,-0.892
20.814,93.73,-74.3399,-252.07,-0.0039,-0.7622,-0.8564
20.832,82.39,-59.22,-259.07,-0.0204,-0.8637,-0.8183
20.849,73.85,-45.15,-252.63,-0.0448,-0.8169,-0.7544
20.865,61.53,-31.43,-237.02,-0.0336,-0.8159,-0.752
20.881,50.68,-21.07,-212.8,0.0014,-0.8086,-0.7461
20.896,36.61,-11.76,-187.95,0.0253,-0.8774,-0.6944
20.914,19.32,-4.83,-152.0399,0.0463,-1.0072,-0.7354
20.931,0.7,1.33,-125.23,0.0141,-0.9979,-0.8217
20.948,-19.74,6.09,-101.15,0.0375,-1.0667,-0.7822
20.964,-40.18,9.87,-79.8,0.0004,-1.0818,-0.6749
20.982,-54.04,12.95,-44.24,0.018,-0.9681,-0.5675
21.0,-74.55,14.56,-7.21,0.0395,-0.8481,-0.403
21.016,-85.47,16.45,31.57,0.0239,-0.7715,-0.3376
21.034,-93.94,18.76,74.97,0.0268,-0.708,-0.2771
21.051,-99.33,22.26,108.15,0.0331,-0.668,-0.2425
21.069,-103.32,26.67,132.9299,0.0161,-0.5782,-0.2454
21.087,-103.53,34.23,148.4,-0.0497,-0.4645,-0.2864
21.104,-101.36,41.3,148.96,-0.141,-0.426,-0.3572
21.122,-97.79,51.52,137.2,-0.202,-0.4138,-0.3923
21.136,-94.78,58.73,119.91,-0.2376,-0.3986,-0.4299
21.154,-90.93,66.29,94.64,-0.2605,-0.4001,-0.4948
21.17,-87.36,72.66,66.36,-0.2898,-0.4548,-0.5563
21.188,-84.56,77.42,32.55,-0.3059,-0.5123,-0.6026
21.203,-82.04,80.43,10.36,-0.2908,-0.5572,-0.6368
21.219,-80.01,81.06,-8.1899,-0.2527,-0.6153,-0.6788
21.235,-77.63,79.66,-16.3799,-0.1883,-0.6729,-0.7183
21.253,-75.81,75.74,-19.18,-0.1371,-0.7217,-0.7622
21.27,-71.33,69.51,-16.1,-0.099,-0.7778,-0.8988
21.285,-67.9,64.12,-11.13,-0.0995,-0.7905,-0.995
21.303,-64.54,58.38,-3.15,-0.0839,-0.7925,-1.0736
21.317,-57.61,50.4,6.16,-0.02,-0.7827,-1.2453
21.331,-51.73,42.84,16.31,0.02,-0.7422,-1.3132
21.345,-44.52,34.44,27.3,0.018,-0.7085,-1.2917
21.362,-39.41,24.64,29.26,-0.0053,-0.7349,-1.2795
21.38,-34.09,15.05,15.82,-0.0156,-0.7456,-1.3034
21.394,-27.44,4.76,0.35,0.0058,-0.7002,-1.3839
21.408,-21.49,-2.94,-13.72,0.0375,-0.6417,-1.4508
21.424,-13.51,-13.58,-25.48,0.0512,-0.5651,-1.5318
21.438,-4.06,-20.93,-35.49,0.0834,-0.5216,-1.5889
21.454,6.37,-31.15,-40.81,0.0775,-0.4806,-1.5411
21.47,18.55,-40.6,-41.5099,0.0868,-0.425,-1.463
21.484,31.64,-48.65,-37.94,0.1146,-0.3718,-1.3063
21.498,42.28,-56.49,-30.73,0.1039,-0.3679,-1.1536
21.525,58.1,-70.14,-19.53,0.0922,-0.3962,-0.873
21.543,65.1,-78.54,-16.66,0.0941,-0.406,-0.729
21.559,70.8399,-86.5899,-17.64,0.1078,-0.3913,-0.65
21.576,75.39,-94.08,-21.35,0.1239,-0.3786,-0.5895
21.594,79.38,-101.71,-29.75,0.1166,-0.3767,-0.5377
21.612,83.44,-106.82,-40.95,0.1112,-0.3625,-0.5084
21.63,87.92,-110.95,-48.09,0.1132,-0.3176,-0.5343
21.645,93.31,-112.42,-52.0099,0.0897,-0.3113,-0.5641
21.66,98.49,-112.35,-53.2,0.0766,-0.3001,-0.6139
21.675,104.0899,-110.95,-52.08,0.0829,-0.2703,-0.6744
21.691,111.09,-108.01,-51.8,0.0566,-0.2703,-0.732
21.709,115.29,-103.95,-51.94,0.0527,-0.2659,-0.7661
21.727,122.22,-96.46,-49.98,0.0736,-0.282,-0.833
21.743,124.95,-90.58,-46.06,0.0854,-0.3528,-0.8559
21.756,125.79,-84.07,-40.39,0.0951,-0.3884,-0.9345
21.773,125.16,-75.74,-33.46,0.0976,-0.4148,-0.9974
21.789,122.29,-66.5,-28.07,0.0834,-0.4304,-1.0277
21.805,116.76,-56.42,-30.1,0.0414,-0.4396,-1.033
21.819,110.95,-46.7599,-38.99,0.0136,-0.4572,-0.9886
21.836,100.45,-35.0,-56.35,-0.019,-0.525,-0.8969
21.85,88.97,-24.15,-74.48,-0.0234,-0.6778,-0.851
21.866,73.64,-13.58,-92.19,-0.0165,-0.7803,-0.831
21.881,58.17,-3.15,-104.37,-0.0034,-0.8984,-0.7568
21.895,38.08,7.21,-102.76,-0.0678,-0.8657,-0.8496
21.911,23.1,17.85,-84.21,-0.0009,-0.8603,-0.8627
21.929,9.45,24.57,-43.68,0.0082,-0.8432,-0.8256
21.943,-8.12,35.98,-13.51,-0.0458,-0.8618,-0.8798
21.959,-25.41,45.9199,7.07,-0.1112,-0.9472,-0.8886
21.972,-38.85,71.19,17.29,-0.1473,-0.9818,-0.8422
21.987,-55.02,61.81,23.03,-0.1415,-0.9725,-0.7866
22.0,-69.51,69.0899,28.56,-0.1093,-0.9023,-0.67
22.032,-95.06,79.8,47.95,-0.0287,-0.81,-0.4489
22.049,-105.63,83.23,55.58,0.0141,-0.7466,-0.343
22.066,-114.45,85.54,62.3,0.0273,-0.6827,-0.2776
22.081,-120.96,88.13,64.47,-0.0048,-0.6397,-0.2337
22.094,-124.46,90.23,66.22,-0.0195,-0.5875,-0.2357
22.111,-126.63,93.66,70.49,-0.0483,-0.5397,-0.2542
22.126,-126.14,97.16,78.12,-0.0795,-0.4923,-0.2747
22.152,-121.24,104.79,97.93,-0.1249,-0.4709,-0.3464
22.17,-116.41,111.86,106.33,-0.1668,-0.5343,-0.4045
22.186,-112.35,117.46,109.48,-0.2215,-0.606,-0.488
22.204,-106.89,125.37,112.28,-0.2503,-0.6085,-0.5787
22.221,-99.89,131.95,118.58,-0.2708,-0.5904,-0.6749
22.237,-93.03,137.48,124.95,-0.2776,-0.6407,-0.7154
22.255,-84.0,141.5399,126.77,-0.2776,-0.7007,-0.7446
22.271,-76.93,143.15,124.6,-0.2405,-0.7617,-0.7773
22.289,-70.07,141.4,121.31,-0.2049,-0.7881,-0.8652
22.307,-63.49,137.97,120.68,-0.1361,-0.7666,-0.9476
22.325,-53.27,125.09,121.24,-0.0507,-0.7832,-1.0457
22.341,-45.64,113.61,121.94,0.0395,-0.7983,-1.1526
22.359,-39.06,94.57,121.66,0.1098,-0.811,-1.2785
22.377,-32.7599,76.37,114.52,0.1024,-0.7988,-1.2932
22.392,-29.54,60.76,100.5899,0.0483,-0.772,-1.2839
22.41,-25.27,39.7599,73.22,0.019,-0.7549,-1.2951
22.428,-23.3799,20.79,47.88,0.0351,-0.7305,-1.3527
22.446,-17.01,-1.96,25.55,0.1244,-0.6954,-1.4732
22.463,-10.64,-22.12,16.52,0.1659,-0.6983,-1.5147
22.481,-2.73,-44.59,21.98,0.1908,-0.6641,-1.5128
22.499,7.77,-62.58,30.59,0.1605,-0.5568,-1.4108
22.515,16.3799,-78.4,32.7599,0.1156,-0.4767,-1.3322
22.53,25.48,-89.88,28.84,0.0629,-0.4426,-1.1809
22.548,32.9,-101.36,18.41,0.0346,-0.4177,-0.9769
22.561,38.57,-109.76,6.44,0.017,-0.3928,-0.8701
22.575,43.05,-117.25,-5.6,0.0107,-0.3996,-0.7568
22.591,47.04,-122.64,-16.17,0.0195,-0.4138,-0.6739
22.62,58.73,-135.8,-25.48,0.1068,-0.3474,-0.5982
22.637,65.87,-143.36,-22.89,0.1439,-0.3352,-0.5597
22.651,73.15,-147.21,-19.39,0.1507,-0.2483,-0.546
22.665,79.5899,-151.48,-18.06,0.1507,-0.2488,-0.5519
22.68,86.5899,-154.7,-16.45,0.139,-0.2469,-0.5943
22.695,93.87,-157.85,-14.56,0.2005,-0.1659,-0.607
22.724,107.87,-161.14,-21.84,0.1586,-0.1483,-0.6627
22.74,115.71,-161.07,-33.11,0.1454,-0.1322,-0.6924
22.756,122.5,-160.3,-45.36,0.1522,-0.1234,-0.7402
22.774,128.1,-157.85,-57.12,0.1254,-0.1625,-0.793
22.791,132.16,-152.67,-64.47,-0.0122,-0.1493,-0.7315
22.808,136.64,-147.42,-72.5899,-0.0058,-0.2586,-0.6817
22.824,137.2,-138.67,-84.0,-0.3401,-0.1551,-0.4884
22.839,139.58,-126.28,-94.57,-0.1761,-0.1073,-0.3811
22.856,131.81,-114.17,-107.17,-0.2205,-0.6914,-0.7129
22.873,97.3,-100.87,-129.08,0.0546,-1.5167,-1.4518
22.889,68.32,-100.31,-153.86,-0.2015,-1.0897,-0.9169
22.905,56.14,-86.24,-167.44,-0.1483,-1.1341,-0.3806
22.922,42.4199,-68.46,-165.13,-0.2825,-1.0814,-0.5041
22.936,28.98,-53.55,-147.07,-0.3045,-1.0472,-0.6914
22.954,12.74,-37.1,-106.89,-0.3147,-1.0028,-0.7754
22.971,-6.72,-25.69,-69.79,-0.3542,-0.9545,-0.833
22.988,-25.97,-13.37,-42.63,-0.362,-0.9852,-0.8081
23.004,-44.66,-2.45,-25.9,-0.3074,-0.9886,-0.728
23.019,-58.59,10.29,-18.48,-0.1766,-0.976,-0.6368
23.037,-71.12,20.3,-15.89,-0.1029,-0.9423,-0.5494
23.05,-86.1,26.88,-14.77,0.0146,-0.8808,-0.4235
23.066,-94.99,32.2,-11.9,0.078,-0.8476,-0.2845
23.083,-102.62,38.22,-5.39,0.0624,-0.7842,-0.1786
23.097,-106.89,44.1699,7.07,-0.0039,-0.7144,-0.1503
23.11,-109.55,51.87,19.8799,-0.1024,-0.6588,-0.1517
23.14,-113.47,72.73,53.97,-0.2815,-0.6768,-0.1659
23.158,-115.71,88.62,66.64,-0.3406,-0.7695,-0.1424
23.174,-120.05,100.24,73.92,-0.3557,-0.85,-0.0897
23.19,-124.53,112.84,80.29,-0.3538,-0.9189,-0.0444
23.206,-126.84,123.34,84.63,-0.3557,-0.9496,-0.0292
23.22,-128.38,134.61,86.24,-0.3498,-0.9603,-0.0453
23.238,-130.27,143.64,85.47,-0.3367,-0.9735,-0.1102
23.251,-131.11,150.15,83.3,-0.3586,-1.015,-0.1698
23.265,-132.65,154.7,82.32,-0.3581,-1.0496,-0.2274
23.28,-133.0,158.48,86.17,-0.3381,-1.0633,-0.2971
23.295,-132.9299,159.46,95.97,-0.2727,-1.0501,-0.3294
23.311,-127.82,157.5,112.14,-0.2059,-1.0082,-0.4875
23.327,-125.09,152.11,123.13,-0.1795,-1.0204,-0.5821
23.345,-119.35,141.75,133.63,-0.08,-0.9467,-0.732
23.359,-114.31,126.56,136.36,0.0253,-0.8349,-0.9164
23.374,-95.55,112.56,138.81,0.1424,-0.6295,-1.1887
23.39,-79.73,89.95,133.42,0.161,-0.508,-1.2209
23.404,-63.07,68.88,111.23,0.1405,-0.403,-1.3141
23.42,-53.34,46.69,74.55,0.0976,-0.3708,-1.3771
23.438,-39.13,17.15,1.61,0.06,-0.383,-1.482
23.466,-15.12,-26.81,-113.96,0.0263,-0.4479,-1.7441
23.481,-4.34,-45.85,-166.88,0.0146,-0.4431,-1.7826
23.498,13.58,-65.5199,-210.84,0.0551,-0.3874,-1.7109
23.513,30.52,-82.46,-224.07,0.0536,-0.3708,-1.564
23.531,46.55,-92.96,-223.23,0.0761,-0.3938,-1.4025
23.545,67.13,-106.26,-211.68,0.1117,-0.4333,-1.1619
23.559,78.4,-114.24,-194.39,0.1083,-0.4718,-0.9979
23.573,90.23,-119.91,-175.56,0.1054,-0.5094,-0.8808
23.591,102.83,-127.4,-151.76,0.0917,-0.4992,-0.7388
23.609,111.09,-133.35,-134.47,0.0878,-0.464,-0.628
23.625,118.37,-136.99,-122.99,0.1098,-0.4177,-0.5587
23.641,124.46,-140.42,-121.17,0.1054,-0.3811,-0.507
23.657,129.99,-142.17,-127.89,0.1029,-0.344,-0.4977
23.671,135.45,-142.52,-138.39,0.1068,-0.3176,-0.4958
23.689,143.22,-140.28,-151.83,0.0819,-0.284,-0.5109
23.707,148.6799,-135.66,-161.0,0.0644,-0.2215,-0.5299
23.724,157.2899,-130.13,-165.69,0.0478,-0.2098,-0.5568
23.738,164.71,-121.59,-172.06,0.0361,-0.2386,-0.5675
23.756,169.05,-109.06,-183.26,0.0,-0.2737,-0.5631
23.771,168.91,-97.86,-193.41,-0.0419,-0.4528,-0.6924
23.787,168.7,-82.39,-196.42,-0.1644,-0.4709,-0.7378
23.802,164.99,-68.46,-189.84,-0.1283,-0.4616,-0.7334
23.819,159.1799,-53.97,-172.9,-0.0024,-0.6109,-0.8515
23.835,154.35,-41.86,-147.49,-0.0229,-0.4845,-0.9247
23.85,149.38,-32.27,-125.79,-0.0346,-0.4289,-0.9394
23.866,141.47,-23.17,-101.01,0.0419,-0.6871,-0.9311
23.884,120.89,-17.5,-81.76,0.0478,-0.9062,-0.9354
23.9,97.44,-11.41,-65.5199,0.0214,-1.0711,-0.9506
23.917,78.05,-7.07,-41.72,0.183,-1.0413,-0.952
23.934,58.38,-1.96,-14.0,-0.0165,-0.934,-0.9813
23.947,43.05,4.48,7.21,-0.118,-0.9964,-1.0521
23.961,21.91,9.24,20.37,-0.1215,-1.1248,-1.035
23.975,-2.52,14.42,26.18,-0.0756,-1.2034,-0.9433
23.993,-36.82,18.83,30.52,0.0468,-1.2492,-0.8144
24.009,-56.42,19.4599,37.1699,0.2522,-1.1882,-0.6827
24.039,-99.96,14.7,54.39,0.4762,-0.9877,-0.3855
24.054,-113.12,12.88,59.01,0.4528,-0.871,-0.2215
24.072,-121.24,13.02,59.36,0.4089,-0.7442,-0.1327
24.088,-129.2899,14.56,56.56,0.3074,-0.5826,-0.1034
24.105,-131.74,19.32,53.9,0.221,-0.4138,-0.139
24.121,-131.11,24.22,52.15,0.1346,-0.3357,-0.1385
24.139,-129.2899,28.63,46.55,0.1093,-0.3464,-0.1493
24.153,-126.0,32.83,38.22,0.1346,-0.4294,-0.1493
24.171,-121.45,36.61,26.11,0.179,-0.5143,-0.1439
24.188,-117.67,38.29,14.63,0.2093,-0.5704,-0.2088
24.204,-114.24,38.9199,5.32,0.22,-0.6236,-0.2688
24.221,-109.55,38.85,-4.76,0.2318,-0.7481,-0.3786
24.239,-106.68,37.59,-15.61,0.2386,-0.854,-0.4645
24.256,-101.64,35.56,-22.26,0.2859,-0.9028,-0.4948
24.27,-95.13,32.69,-23.24,0.2962,-0.8788,-0.5094
24.288,-87.99,28.21,-20.37,0.3157,-0.8447,-0.5309
24.306,-68.81,22.9599,-14.77,0.3435,-0.8549,-0.629
24.323,-55.44,18.2,-7.49,0.3352,-0.9364,-0.7222
24.339,-43.47,14.49,-0.98,0.2957,-1.0043,-0.7427
24.356,-33.46,11.41,2.38,0.2488,-1.0828,-0.8037
24.372,-28.28,8.47,0.28,0.2513,-1.1516,-0.8774
24.385,-22.82,4.41,-4.62,0.2854,-1.1941,-0.9037
24.399,-18.62,-0.35,-16.17,0.3274,-1.2082,-0.8862
24.415,-14.42,-5.25,-37.45,0.3557,-1.2151,-0.912
24.429,-8.1899,-13.93,-56.28,0.3645,-1.1916,-0.9896
24.445,-0.28,-19.95,-70.91,0.3386,-1.1804,-1.1082
24.459,7.56,-24.92,-81.3399,0.3074,-1.1658,-1.2307
24.476,19.8799,-29.26,-87.99,0.2859,-1.0823,-1.3117
24.492,31.08,-32.48,-88.76,0.2854,-0.9969,-1.3527
24.505,44.73,-35.07,-85.96,0.2981,-0.8857,-1.2868
24.52,60.55,-37.52,-79.94,0.3186,-0.7593,-1.1848
24.534,76.0899,-39.55,-73.78,0.2986,-0.6934,-1.0438
24.55,88.3399,-41.09,-66.43,0.2845,-0.6065,-0.914
24.579,119.0,-43.89,-66.08,0.2357,-0.465,-0.6026
24.594,129.64,-44.66,-76.86,0.2225,-0.4274,-0.485
24.609,138.67,-45.08,-93.66,0.2444,-0.403,-0.423
24.627,146.65,-45.15,-113.12,0.2703,-0.3957,-0.3928
24.643,154.21,-44.66,-132.65,0.2776,-0.405,-0.3796
24.661,161.49,-42.4199,-146.72,0.2981,-0.4118,-0.4148
24.677,165.41,-40.11,-152.53,0.3396,-0.3908,-0.4611
24.693,168.77,-37.38,-152.53,0.3581,-0.3679,-0.5016
24.711,171.92,-34.44,-153.09,0.3606,-0.3118,-0.5148
24.728,173.74,-29.89,-159.32,0.2918,-0.2918,-0.545
24.744,172.62,-24.57,-168.35,0.2591,-0.3074,-0.6104
24.759,169.89,-18.69,-175.28,0.2415,-0.3723,-0.6651
24.775,164.78,-11.34,-182.28,0.2274,-0.4699,-0.7432
24.793,155.6799,-3.99,-186.55,0.203,-0.5665,-0.7666
24.811,140.35,3.99,-182.0,0.2259,-0.671,-0.7817
24.825,127.47,7.7,-171.92,0.2971,-0.7822,-0.8813
24.841,110.32,9.17,-157.2899,0.3557,-0.8354,-0.9452
24.856,94.99,8.47,-136.78,0.4191,-0.8949,-0.9535
24.871,77.14,4.41,-117.32,0.545,-1.0135,-1.0165
24.886,55.02,-2.24,-96.04,0.7085,-1.1585,-1.0975
24.904,30.66,-12.11,-65.5199,0.7705,-1.259,-1.1443
24.919,9.8,-19.39,-39.13,0.5724,-1.2263,-1.0775
24.937,-17.01,-23.17,-4.41,0.4494,-1.1697,-0.953
24.954,-37.94,-24.15,30.59,0.4435,-1.0994,-0.8964
24.972,-58.1,-22.9599,65.17,0.4274,-0.954,-0.871
24.99,-72.5899,-20.09,87.78,0.3655,-0.7124,-0.8266
25.006,-84.28,-16.03,102.2699,0.3655,-0.5675,-0.7788
25.024,-94.5,-12.25,107.59,0.3747,-0.5143,-0.6622
25.042,-103.39,-9.59,105.63,0.406,-0.5304,-0.5509
25.058,-114.87,-6.58,103.04,0.4489,-0.5729,-0.3528
25.075,-124.6,-4.48,104.3,0.4455,-0.5787,-0.2479
25.093,-132.86,-1.47,109.76,0.4289,-0.5982,-0.1888
25.111,-145.74,3.15,115.92,0.3825,-0.6407,-0.1473
25.127,-155.47,9.45,124.46,0.3357,-0.669,-0.1205
25.144,-164.92,18.83,133.42,0.3045,-0.7012,-0.1098
25.162,-174.65,28.28,144.48,0.303,-0.7739,-0.1093
25.179,-182.7,38.43,159.32,0.3752,-0.8471,-0.12
25.193,-188.02,47.81,173.6,0.405,-0.8935,-0.1381
25.209,-192.15,58.45,192.2899,0.423,-0.9335,-0.1688
25.226,-195.7899,74.2,210.28,0.4377,-0.9633,-0.2347
25.244,-198.31,88.83,226.17,0.4377,-0.9984,-0.2923
25.261,-199.71,103.81,242.2,0.4655,-1.0086,-0.3274
25.279,-196.49,120.54,260.26,0.5197,-1.0579,-0.3684
25.294,-191.59,132.65,271.46,0.5792,-1.0892,-0.425
25.312,-184.1,145.67,283.78,0.6046,-1.1092,-0.5094
25.328,-174.65,158.06,290.01,0.5802,-1.1116,-0.5455
25.341,-166.25,168.84,291.62,0.5138,-1.1194,-0.5655
25.357,-154.98,177.66,289.94,0.5246,-1.1668,-0.6939
25.375,-146.7899,183.82,285.32,0.5543,-1.1463,-0.6695
25.393,-126.07,188.37,277.2,0.5953,-1.1409,-0.5563
25.411,-110.88,187.67,266.77,0.6002,-1.1712,-0.5504
25.427,-95.3399,186.13,252.21,0.4962,-1.2073,-0.6339
25.441,-82.46,184.73,244.65,0.3562,-1.2248,-0.7764
25.456,-69.65,182.42,251.09,0.3381,-1.219,-0.933
25.472,-53.48,175.77,276.3599,0.5065,-1.2185,-1.0623
25.49,-39.97,161.0,327.53,0.6861,-1.2043,-1.0999
25.508,-10.36,141.89,377.16,0.7964,-1.0897,-1.0052
25.522,5.81,121.66,400.6099,0.831,-1.0008,-0.9433
25.538,21.2099,95.06,415.87,0.8291,-0.8686,-0.8535
25.556,34.23,74.2,398.23,0.7915,-0.7446,-0.7832
25.574,45.99,30.1,350.35,0.6885,-0.6075,-0.7188
25.592,49.21,-0.84,273.63,0.5914,-0.5646,-0.6514
25.606,51.87,-26.88,223.65,0.5538,-0.4743,-0.6392
25.624,53.9,-56.63,145.81,0.508,-0.3986,-0.6182
25.641,58.24,-103.95,82.39,0.5153,-0.3269,-0.5602
25.658,65.94,-117.18,25.76,0.4401,-0.2527,-0.5475
25.674,77.7699,-137.48,-22.4,0.3596,-0.2069,-0.5138
25.692,90.0199,-159.81,-65.03,0.2869,-0.1952,-0.4987
25.709,106.12,-170.66,-102.83,0.2137,-0.2474,-0.4245
25.725,125.58,-184.1,-139.65,0.1483,-0.4001,-0.3601
25.742,140.14,-189.0,-174.58,0.1005,-0.5045,-0.3445
25.76,162.82,-191.03,-199.99,0.1161,-0.6212,-0.3318
25.776,179.48,-188.58,-216.51,0.1176,-0.671,-0.3342
25.792,198.59,-182.98,-227.15,0.0736,-0.7754,-0.3474
25.81,217.84,-170.87,-225.26,0.06,-0.8339,-0.344
25.824,229.53,-159.67,-215.74,0.0844,-0.9208,-0.3191
25.842,239.12,-145.32,-206.15,0.0917,-0.9784,-0.2918
25.858,244.86,-131.32,-209.37,0.101,-1.0809,-0.2318
25.876,244.3,-109.34,-215.74,0.0341,-1.2029,-0.0814
25.891,240.03,-87.99,-210.63,0.0356,-1.2439,-0.0004
25.909,229.81,-67.83,-195.02,0.1034,-1.2487,0.0746
25.924,219.66,-52.78,-179.13,0.2264,-1.2263,0.1117
25.942,202.44,-34.44,-170.94,0.223,-1.2165,0.1268
25.959,185.36,-20.09,-163.38,0.2513,-1.1575,0.1049
25.974,168.07,-9.8,-146.9299,0.3411,-1.1194,0.118
25.992,151.62,-1.61,-117.04,0.5001,-1.0213,0.0863
26.009,132.7899,-3.43,-79.5899,0.8901,-0.8871,0.1083
26.026,119.21,-12.25,-46.41,0.9764,-0.7627,0.0751
26.043,108.64,-16.8,-35.91,1.0384,-0.5821,0.1346
26.059,82.25,-26.88,-89.53,1.2746,0.1244,0.1542
26.077,78.54,-32.41,-159.11,1.4322,-0.1503,0.1
26.092,71.89,-19.4599,-173.11,1.0506,-0.0863,0.18
26.11,49.4199,-9.87,-146.51,1.687,-0.5953,-0.3557
26.124,8.47,1.68,-105.49,0.2366,-0.6954,0.1503
26.142,3.92,8.1899,-54.11,0.2283,-0.5246,-0.0722
26.158,5.88,3.85,-7.77,0.4494,-0.4831,0.0034
26.173,0.63,-1.47,13.02,0.6207,-0.4787,0.2513
26.191,-33.6,-1.82,-7.07,0.5084,-0.6588,0.4235
26.206,-37.8,2.8,-38.57,0.3357,-0.729,0.3655
26.221,-53.69,10.08,-57.96,0.3123,-0.7583,0.363
26.236,-66.71,18.83,-49.84,0.4352,-0.7524,0.3347
26.252,-81.9,27.09,-29.19,0.467,-0.7705,0.345
26.268,-96.53,37.87,-6.93,0.4172,-0.7534,0.404
26.285,-108.29,49.14,2.52,0.3762,-0.7032,0.424
26.302,-116.55,61.18,2.17,0.3367,-0.6949,0.3435
26.315,-122.78,71.89,-2.8,0.3264,-0.7856,0.2025
26.333,-134.6799,85.4,-8.26,0.2718,-0.9394,0.1122
26.349,-143.4299,96.39,-8.82,0.3254,-1.0716,0.1756
26.367,-157.85,103.25,2.8699,0.3757,-1.3439,0.3362
26.384,-168.07,110.74,15.19,0.5504,-1.4522,0.4772
26.4,-179.76,118.37,24.7099,0.5397,-1.6299,0.526
26.416,-191.1,125.58,26.39,0.5885,-1.7226,0.5236
26.432,-205.31,132.51,27.23,0.6187,-1.685,0.4811
26.45,-218.19,142.87,41.86,0.7295,-1.6465,0.5421
26.463,-234.01,150.01,65.5199,0.8193,-1.5137,0.6412
26.481,-247.38,161.42,76.86,0.8466,-1.3995,0.6788
26.499,-259.14,168.7,50.2599,0.7671,-1.0213,0.6656
26.517,-275.66,168.77,-38.22,0.5416,-0.8203,0.5524
26.534,-293.72,157.08,-92.33,0.5255,-0.7705,0.5016
26.55,-306.46,148.82,-90.79,0.4723,-0.8022,0.4509
26.568,-310.52,147.21,-36.68,0.3655,-0.7393,0.3957
26.586,-307.72,152.81,44.03,0.3703,-0.8535,0.3616
26.604,-302.82,167.02,104.3,0.3567,-0.8837,0.3767
26.621,-294.21,184.17,130.41,0.3118,-0.8544,0.3933
26.634,-287.77,197.4,119.98,0.302,-0.8344,0.404
26.648,-280.77,207.55,89.32,0.2552,-0.8749,0.4387
26.665,-273.63,217.77,55.51,0.2664,-0.9706,0.4587
26.681,-267.68,225.75,28.28,0.2513,-1.0989,0.4499
26.695,-263.55,231.98,20.86,0.2064,-1.1912,0.4509
26.711,-256.62,239.05,24.08,0.1781,-1.1863,0.4396
26.727,-250.18,248.08,30.87,0.0775,-1.1121,0.4187
26.745,-239.75,259.7,49.77,0.039,-1.0653,0.383
26.763,-226.73,267.4,74.9,0.0209,-1.0687,0.3747
26.78,-208.53,280.56,106.75,0.1176,-1.0755,0.4152
26.794,-189.35,288.05,141.05,0.182,-1.0696,0.4338
26.809,-171.78,294.7,167.86,0.2,-1.1145,0.4138
26.825,-150.36,300.72,188.37,0.222,-1.1424,0.3459
26.84,-134.96,303.94,193.62,0.2249,-1.2141,0.2215
26.855,-117.6,304.0799,177.03,0.2044,-1.3527,0.0366
26.885,-104.58,297.15,114.94,0.0878,-1.5601,-0.1961
26.901,-105.07,288.47,101.43,0.1512,-1.6465,-0.2088
26.919,-104.3,277.48,115.36,0.221,-1.5972,-0.1576
26.934,-102.83,260.47,146.09,0.3425,-1.5006,-0.0936
26.952,-96.74,239.54,181.65,0.4479,-1.4488,-0.0844
26.966,-91.98,217.35,207.97,0.5299,-1.3688,-0.1083
26.982,-86.5199,193.83,223.58,0.5187,-1.3029,-0.139
26.997,-83.0899,161.07,216.44,0.5123,-1.179,-0.1473
27.015,-82.11,126.35,173.74,0.4401,-0.9642,-0.1659
27.033,-83.3,85.19,121.24,0.3269,-0.8056,-0.2122
27.051,-83.44,46.48,80.43,0.3333,-0.6387,-0.2508
27.068,-77.14,9.66,56.21,0.3362,-0.7232,-0.2239
27.084,-72.73,-28.21,45.36,0.3352,-0.608,-0.2605
27.098,-69.37,-59.85,35.63,0.3128,-0.6124,-0.2698
27.115,-64.47,-96.32,21.07,0.3372,-0.6236,-0.304
27.132,-58.59,-131.88,1.19,0.3586,-0.5963,-0.3547
27.15,-51.45,-165.48,-29.89,0.3742,-0.6231,-0.4138
27.166,-43.82,-196.84,-57.96,0.3645,-0.6929,-0.4435
27.181,-37.59,-221.2,-93.87,0.3367,-0.81,-0.4352
27.197,-28.56,-246.33,-123.9,0.3098,-0.8779,-0.4187
27.213,-17.29,-267.12,-152.11,0.2903,-0.9091,-0.4089
27.231,0.63,-284.34,-169.96,0.2723,-0.8891,-0.3957
27.248,19.6,-297.85,-178.64,0.2771,-0.873,-0.3567
27.264,36.68,-306.88,-178.78,0.284,-0.8579,-0.3074
27.278,57.47,-314.72,-175.35,0.2928,-0.8432,-0.2464
27.296,77.42,-320.04,-167.37,0.2918,-0.8398,-0.18
27.313,96.81,-322.49,-157.99,0.2737,-0.7934,-0.1708
27.33,114.87,-322.42,-148.19,0.2503,-0.7749,-0.1932
27.346,131.53,-319.69,-142.03,0.2313,-0.7949,-0.2376
27.362,146.16,-315.35,-142.03,0.2469,-0.8915,-0.3259
27.38,154.14,-307.72,-151.97,0.2469,-1.0433,-0.4523
27.398,167.58,-298.62,-159.74,0.2718,-1.179,-0.586
27.416,176.96,-287.0,-160.23,0.3269,-1.177,-0.5919
27.434,186.06,-274.89,-153.09,0.2947,-1.22,-0.4855
27.452,189.98,-260.12,-141.26,0.2239,-1.3771,-0.386
27.469,196.0,-242.55,-127.61,0.324,-1.4791,-0.2161
27.487,193.34,-228.13,-114.8,0.2054,-1.4396,-0.1322
27.505,192.4299,-210.98,-99.89,0.2625,-1.341,-0.0644
27.523,192.92,-192.99,-92.05,0.1327,-1.2629,-0.0234
27.541,194.32,-174.72,-90.79,0.14,-1.0765,-0.0165
27.556,196.49,-156.31,-91.56,0.1664,-0.9882,0.0575
27.572,199.22,-140.84,-85.61,0.2435,-0.9062,0.0751
27.589,198.52,-125.3,-74.2699,0.2771,-0.9755,0.1161
27.606,200.69,-110.81,-63.56,0.3825,-0.8042,0.2098
27.623,200.13,-96.18,-60.48,0.3694,-0.6583,0.2581
27.64,199.64,-85.75,-66.71,0.4484,-0.7178,0.2854
27.658,195.44,-76.0199,-73.36,0.4748,-0.6822,0.2937
27.673,192.64,-69.37,-64.4,0.5348,-0.629,0.2791
27.69,188.72,-64.33,-38.15,0.5504,-0.5782,0.3045
27.706,185.4299,-60.9,-4.13,0.5167,-0.5246,0.323
27.721,182.7,-58.73,19.81,0.4914,-0.4738,0.3289
27.737,178.22,-58.17,29.68,0.4172,-0.4289,0.3035
27.755,174.58,-58.03,27.65,0.3498,-0.4352,0.3211
27.773,166.53,-56.49,28.14,0.2835,-0.3904,0.3611
27.786,137.62,-50.75,47.11,0.5231,-0.0653,0.6905
27.8,109.97,-36.82,77.42,0.7627,-0.671,0.1093
27.815,84.28,12.25,74.97,0.3401,-0.3986,0.5738
27.829,68.53,7.77,55.44,0.2786,-0.5363,0.4914
27.843,68.46,6.58,31.43,0.3401,-0.6885,0.6705
27.86,69.3,-1.68,19.39,0.264,-0.8427,0.7886
27.875,83.79,-9.52,34.72,0.2303,-1.0521,0.9306
27.889,97.93,-18.1299,75.18,0.242,-1.2585,0.9589
27.904,114.24,-26.88,99.82,0.4035,-1.0609,0.9389
27.92,131.0399,-33.88,101.22,0.4855,-0.9145,0.8066
27.938,132.58,-52.0099,86.5899,0.7178,-1.0789,0.7783
27.954,122.57,-64.54,63.63,0.7193,-1.2175,0.8271
27.971,108.22,-78.96,56.07,0.688,-1.2219,0.8652
27.987,96.32,-87.71,72.17,0.6392,-1.094,0.8857
28.004,82.18,-90.16,105.84,0.221,-0.8188,0.7578
28.033,74.41,-89.18,132.58,-0.0624,-0.2723,0.2932
28.05,74.48,-95.83,135.59,0.0551,-0.1771,0.0878
28.066,73.08,-105.35,125.37,0.1312,-0.1049,-0.0478
28.082,72.17,-118.16,112.84,0.1537,-0.0688,-0.0668
28.098,72.1,-131.32,98.7699,0.1664,-0.037,0.0029
28.115,73.08,-140.42,84.8399,0.0551,-0.1844,0.1878
28.131,71.89,-143.4299,71.75,-0.0429,-0.3006,0.4875
28.146,75.39,-139.7899,64.12,-0.1917,-0.4933,0.7827
28.163,84.42,-127.26,66.01,-0.362,-0.6929,1.1394
28.178,99.47,-111.86,81.62,-0.4104,-0.8676,1.3132
28.195,110.18,-95.3399,110.81,-0.385,-0.9638,1.2805
28.213,125.65,-77.7,125.51,-0.3142,-1.0047,1.2741
28.231,138.0399,-64.47,120.19,-0.139,-1.1131,1.3961
28.248,139.7899,-59.36,97.0199,-0.079,-1.1414,1.4747
28.262,134.6799,-56.28,78.19,-0.0702,-1.259,1.5147
28.28,125.58,-54.32,90.86,0.04,-1.4015,1.4796
28.295,101.5,-56.21,127.12,0.2776,-1.4313,1.4195
28.309,77.91,-60.34,147.56,0.4006,-1.338,1.3834
28.326,49.49,-60.83,122.01,0.3425,-1.1272,1.4932
28.34,28.35,-56.14,92.75,0.2571,-1.0579,1.6406
28.355,15.4,-49.77,94.08,0.1912,-1.0721,1.6987
28.369,10.08,-42.56,110.81,0.1927,-0.9315,1.521
28.386,13.02,-26.25,117.46,0.2532,-0.4899,0.9613
28.403,20.93,-7.42,103.67,0.4001,-0.2083,0.63
28.419,30.31,9.66,54.53,0.4294,-0.0239,0.4943
28.435,41.23,26.25,4.13,0.4865,-0.0136,0.4679
28.466,45.78,51.31,-42.7,0.4548,-0.6046,0.7198
28.484,42.63,59.92,-9.87,0.3103,-1.1448,1.0008
28.5,40.39,69.0899,33.18,0.121,-1.2121,1.1985
28.516,40.88,78.47,74.76,-0.1063,-1.0657,1.2541
28.531,42.91,84.98,102.69,-0.2532,-0.9862,1.2502
28.547,45.85,86.73,135.24,-0.1839,-0.9062,1.2707
28.565,53.13,79.66,147.35,-0.1864,-0.6114,1.1023
28.582,64.12,65.03,132.37,-0.1561,-0.4596,0.9555
28.598,77.49,45.15,127.19,-0.0863,-0.4372,0.8427
28.616,85.4,24.92,142.8,-0.0273,-0.5119,0.7734
28.634,94.78,-7.98,151.48,-0.0361,-0.5875,0.8793
28.651,96.46,-28.21,116.69,-0.3601,-0.4748,0.9974
28.667,96.39,-39.13,79.87,-0.668,-0.6334,1.0706
28.683,94.92,-40.81,100.5199,-0.7427,-0.9067,0.9428
28.697,94.78,-38.43,158.06,-0.6885,-0.9023,0.6993
28.711,97.72,-34.3,197.89,-0.7695,-0.6314,0.506
28.727,103.46,-23.17,208.46,-1.1346,-0.4465,0.5787
28.743,103.88,-13.02,208.1799,-1.1067,-0.8095,0.7163
28.761,91.42,-18.1299,243.53,-0.6714,-1.5723,0.8569
28.779,58.03,-44.45,280.98,-0.2835,-2.2189,0.9379
28.796,5.7399,-68.6,247.73,-0.4806,-1.9071,0.5909
28.814,-34.44,-85.33,209.23,-0.6905,-1.6064,0.2522
28.831,-59.29,-93.87,245.77,-0.6256,-1.3908,0.1834
28.844,-71.68,-94.99,290.3599,-0.4177,-1.1507,0.2527
28.86,-86.5899,-91.7,284.13,-0.383,-0.9276,0.3772
28.876,-93.38,-89.53,211.05,-0.1952,-0.6588,0.3738
28.892,-98.14,-88.69,147.7,-0.1298,-0.6368,0.345
28.921,-127.96,-78.33,157.64,0.5031,-1.6499,0.6426
28.937,-144.55,-58.73,220.64,0.731,-1.4547,0.6905
28.953,-152.1799,-33.81,241.36,0.9974,-0.7822,0.526
28.969,-153.09,-2.66,192.4299,1.3815,-0.5045,0.6612
28.982,-149.87,11.6899,92.12,1.7353,-0.6705,0.9418
28.996,-133.21,42.28,21.6299,1.8597,-1.2653,1.0379
29.011,-121.24,70.0,-32.83,1.7982,-1.3898,0.6178
29.027,-110.46,89.53,-71.4,1.8231,-1.8075,-0.0761
29.056,-128.8,127.96,-184.59,2.1032,-2.9411,-0.9262
29.072,-134.33,162.33,-334.04,1.7841,-4.2519,-1.1799
29.088,-155.82,174.72,-457.87,1.6113,-4.8331,-1.87
29.102,-179.34,194.0399,-454.58,1.6523,-4.574,-2.7181
29.12,-221.2,230.16,-409.78,0.831,-5.0386,-4.2065
29.137,-274.96,335.16,-339.64,-1.8851,-6.8427,-4.5525
29.154,-338.1,470.82,-313.81,-4.7658,-6.9266,-4.1167
29.172,-364.77,572.67,-268.66,-5.3836,-5.7491,-3.638
29.19,-355.25,776.37,-183.96,-4.8565,-4.756,-3.3345
29.206,-89.46,-1231.16,-1164.59,-0.3435,6.3108,-9.1866
29.222,-885.36,1890.98,-739.83,-10.1001,-4.0572,-6.5811
29.237,-935.06,-142.73,-287.56,-0.0756,-3.9698,1.8875
29.254,-594.86,486.29,-191.31,-3.6917,-4.6189,1.0574
29.271,-437.57,676.9699,-523.53,-5.5305,-4.3114,2.2814
29.287,-426.09,764.4699,-639.1,-6.7978,-1.9202,2.3775
29.304,-494.34,830.27,-344.47,-6.2971,-1.8124,2.2379
29.322,-458.22,916.58,61.81,-3.9752,-1.7026,1.4991
29.339,-254.94,940.45,359.59,-0.7973,-1.0472,1.3093
29.355,-62.09,880.04,344.89,-0.7154,-0.5045,0.2005
29.373,104.58,818.79,33.46,-1.8485,0.017,-0.3025
29.389,184.45,741.44,-72.66,-0.975,0.0692,-1.2546
29.406,264.53,649.53,160.02,-0.2806,-0.7607,-1.3454
29.423,302.19,500.85,435.82,0.4806,-1.0355,-1.2702
29.439,319.76,322.84,492.45,0.3176,-0.0624,-1.5103
29.457,307.72,166.88,269.64,0.4611,0.8359,-1.503
29.475,273.56,51.87,-57.05,0.5885,1.4566,-1.5381
29.493,209.72,-51.66,-103.88,0.7276,0.8784,-1.5762
29.51,138.81,-133.91,-17.5,0.5885,0.3172,-1.4283
29.528,65.5199,-204.26,10.99,0.159,-0.1654,-1.481
29.544,-5.67,-242.06,-24.08,0.4362,-0.5572,-1.4147
29.562,-83.0899,-275.73,-138.0399,-0.079,-0.8837,-0.446
29.578,-116.62,-294.42,-229.95,-0.0746,-1.3595,0.5031
29.594,-166.25,-320.88,-231.7,0.1586,-1.951,1.909
29.611,-228.97,-352.24,-166.25,0.4548,-2.7332,3.415
29.629,-288.89,-374.99,-80.78,0.6588,-3.3105,4.4017
29.642,-340.76,-387.94,-37.59,0.8139,-2.9909,4.8507
29.66,-318.92,-352.38,-10.15,0.4787,-2.1999,3.6526
29.676,-286.72,-304.64,-14.35,0.121,-1.013,1.8426
29.69,-266.35,-275.66,-21.84,0.4699,-0.8705,1.1428
29.708,-216.23,-246.61,-34.3,0.5992,-0.6607,0.9218
29.725,-167.3,-206.71,-33.6,0.7671,-0.4157,0.5494
29.741,-119.21,-174.72,-7.21,0.7412,-0.3786,0.2962
29.759,-80.01,-154.0,22.4,1.2936,-0.4148,0.6207
29.776,-49.63,-140.84,38.85,1.2531,-0.3635,0.6939
29.794,-31.08,-129.99,32.2,1.0994,-0.099,0.5948
29.811,-4.76,-120.54,-1.54,0.6505,-0.0122,0.3435
29.829,12.25,-102.2699,-50.33,0.2752,-0.0844,0.1176
29.847,17.22,-86.8,-94.22,0.1639,-0.4079,-0.1161
29.865,0.63,-68.81,-109.62,0.404,-1.2112,-0.6119
29.881,-27.09,-57.33,-94.64,0.6412,-2.0286,-0.3342
29.897,-57.82,-48.44,-61.95,0.606,-2.5688,0.0258
29.912,-95.41,-40.6,-45.57,0.6441,-2.8796,-0.159
29.929,-160.37,-34.65,-58.03,0.5001,-2.9323,-0.4704
29.945,-184.94,-23.94,-79.5199,0.1825,-2.8386,0.0175
29.963,-231.21,-11.4799,-69.0199,0.1205,-2.8689,0.6197
29.981,-270.06,-0.35,-23.31,0.3562,-2.8616,0.8374
29.995,-298.55,6.93,8.89,0.6226,-2.7801,0.8979
30.013,-317.87,17.78,27.79,0.628,-2.5424,0.9789
30.026,-327.39,27.16,47.46,0.4562,-2.2404,1.2331
30.04,-328.65,41.86,81.55,0.3474,-2.0007,1.2556
30.056,-322.56,63.7,122.29,0.2488,-1.7167,1.1804
30.074,-301.91,79.8,156.73,0.3396,-1.2078,1.0565
30.102,-220.71,102.2,135.8,0.3752,-0.5904,0.8296
30.119,-172.97,102.9,99.47,0.2849,-0.484,0.6939
30.136,-130.62,99.47,77.98,0.2308,-0.4899,0.568
30.151,-100.38,95.06,82.74,0.2327,-0.5031,0.5377
30.166,-75.11,88.97,103.95,0.2371,-0.4875,0.5104
30.181,-51.45,82.39,125.79,0.2269,-0.4479,0.4982
30.196,-34.16,74.62,129.2899,0.1639,-0.4382,0.506
30.212,-19.95,64.33,111.72,0.1205,-0.4548,0.4962
30.23,-9.52,53.48,82.67,0.0917,-0.5065,0.4948
30.243,-0.56,44.1,69.16,0.1161,-0.5621,0.5021
30.257,1.12,35.21,55.79,0.1542,-0.6597,0.5109
30.272,2.59,22.68,38.85,0.2015,-0.7656,0.5353
30.289,2.1,13.02,13.09,0.2649,-1.0296,0.5221
30.303,-3.64,-2.17,-7.63,0.4099,-1.3903,0.3513
30.334,-20.02,-27.37,-44.66,0.4938,-1.9412,-0.2269
30.35,-27.86,-35.4199,-55.93,0.403,-1.9973,-0.4099
30.366,-32.69,-40.81,-56.98,0.3918,-1.969,-0.4992
30.381,-35.63,-45.43,-47.04,0.4689,-1.9768,-0.5041
30.398,-36.68,-51.87,-24.57,0.5987,-1.9271,-0.403
30.416,-35.4199,-61.25,0.77,0.7056,-1.8578,-0.2659
30.432,-29.12,-68.25,10.85,0.6885,-1.6152,-0.1576
30.449,-18.55,-76.44,10.29,0.5851,-1.3605,-0.1376
30.466,-2.31,-80.43,7.14,0.4782,-1.1477,-0.1415
30.48,14.56,-82.95,3.01,0.3689,-0.8906,-0.1405
30.494,32.83,-84.07,-1.68,0.283,-0.75,-0.1058
30.512,49.77,-84.7,-6.37,0.2386,-0.7149,-0.0644
30.53,70.56,-85.47,-8.75,0.2113,-0.7446,0.038
30.548,81.3399,-86.31,-1.96,0.2015,-0.7305,0.0653
30.564,92.61,-88.2,9.8,0.1878,-0.6734,0.0697
30.582,101.01,-90.58,21.35,0.1664,-0.6139,0.0785
30.598,106.47,-93.94,24.22,0.1605,-0.5821,0.0868
30.616,112.91,-97.72,14.98,0.1083,-0.5914,0.1044
30.631,117.6,-100.03,-7.0,0.0522,-0.6778,0.0575
30.646,121.73,-100.66,-28.35,0.0063,-0.7237,-0.0165
30.661,126.84,-99.61,-43.68,-0.02,-0.7861,-0.1044
30.676,130.13,-97.44,-50.75,-0.0522,-0.8984,-0.2132
30.691,134.05,-94.08,-45.9199,-0.0429,-0.9437,-0.2815
30.707,138.25,-89.88,-36.05,-0.0439,-1.015,-0.3474
30.722,140.7,-86.38,-30.24,-0.0141,-1.1287,-0.4274
30.74,141.4,-82.88,-37.59,0.0058,-1.2751,-0.4494
30.758,139.7899,-80.01,-58.59,0.0629,-1.4376,-0.4489
30.776,135.73,-75.46,-74.13,0.081,-1.5367,-0.4352
30.792,130.83,-70.98,-73.36,0.0653,-1.5586,-0.4518
30.81,122.64,-64.61,-52.43,0.12,-1.5318,-0.4431
30.826,116.34,-60.97,-21.35,0.2215,-1.4713,-0.3986
30.841,108.85,-60.34,-1.4,0.2962,-1.403,-0.3596
30.857,103.18,-61.74,7.49,0.4953,-1.32,-0.3459
30.873,97.93,-63.84,6.93,0.405,-1.1931,-0.3625
30.887,94.85,-65.8,2.52,0.4235,-1.0789,-0.3889
30.904,92.47,-67.76,-7.98,0.4489,-0.9828,-0.405
30.922,91.63,-69.65,-30.94,0.4801,-0.9291,-0.3874
30.94,91.42,-70.0,-59.43,0.4753,-0.8598,-0.3996
30.957,90.72,-68.67,-73.92,0.4338,-0.7559,-0.4157
30.974,90.79,-66.15,-76.51,0.444,-0.6134,-0.4289
30.991,90.72,-63.7,-69.44,0.4938,-0.5709,-0.4553
31.006,90.0899,-62.44,-65.17,0.5992,-0.5299,-0.4665
31.021,89.18,-62.51,-68.11,0.6134,-0.4909,-0.4514
31.036,87.15,-62.58,-77.63,0.5812,-0.4548,-0.4392
31.051,83.79,-62.37,-84.98,0.549,-0.4182,-0.4152
31.066,79.03,-61.32,-92.61,0.5158,-0.4416,-0.3835
31.081,70.7,-59.99,-103.53,0.4753,-0.5504,-0.3484
31.096,60.2,-58.03,-113.96,0.4665,-0.6334,-0.3479
31.111,47.6,-56.0,-111.93,0.5153,-0.6875,-0.3557
31.126,34.09,-53.9,-102.55,0.5055,-0.7583,-0.4055
31.142,14.84,-51.24,-89.11,0.4811,-0.8437,-0.4455
31.16,-3.29,-47.88,-76.51,0.5426,-0.8984,-0.485
31.178,-24.99,-46.06,-70.49,0.6075,-0.9086,-0.5148
31.196,-54.46,-41.86,-65.38,0.6182,-0.893,-0.5436
31.214,-74.13,-38.36,-58.38,0.6485,-0.8335,-0.5333
31.231,-88.76,-33.88,-50.75,0.7583,-0.8217,-0.505
31.249,-104.37,-31.43,-42.07,0.9301,-0.8286,-0.5328
31.262,-117.25,-26.18,-39.83,1.0082,-0.874,-0.6329
31.276,-130.2,-21.98,-45.85,0.9447,-0.9828,-0.7524
31.293,-149.38,-15.26,-53.69,0.8852,-1.1004,-0.8115
31.309,-170.87,-7.0,-56.77,0.85,-1.1858,-0.6973
31.326,-188.58,2.8,-50.82,0.9247,-1.1663,-0.4714
31.34,-200.13,10.71,-42.0,1.0306,-1.0223,-0.2893
31.355,-205.87,18.55,-36.54,1.0814,-0.8676,-0.2161
31.37,-209.02,26.53,-36.33,1.1067,-0.711,-0.1937
31.385,-209.3,52.85,-38.5,1.0799,-0.5909,-0.2542
31.4,-208.81,44.8,-44.52,1.0272,-0.5104,-0.362
31.415,-205.31,51.45,-53.34,1.0438,-0.4748,-0.363
31.429,-203.42,58.52,-64.26,1.0994,-0.4753,-0.365
31.445,-198.45,61.18,-77.42,1.1746,-0.4782,-0.2864
31.459,-196.7,61.11,-92.89,1.1726,-0.4645,-0.2103
31.473,-194.39,60.34,-108.71,1.1043,-0.4665,-0.14
31.49,-194.1799,57.47,-121.03,1.0736,-0.4992,-0.1263
31.505,-192.85,56.21,-120.47,0.9969,-0.485,-0.0639
31.519,-193.2,55.09,-107.66,0.892,-0.4816,0.0122
31.534,-195.09,54.32,-83.51,0.8993,-0.6275,-0.0322
31.549,-199.99,53.83,-46.48,0.872,-0.6983,0.1137
31.567,-205.45,54.11,13.09,0.9232,-0.7549,0.0326
31.582,-212.52,57.54,56.28,0.8413,-0.9945,0.0795
31.599,-221.2,64.12,106.96,0.6075,-0.8608,0.1546
31.615,-228.9,71.26,151.69,0.588,-1.0165,0.2381
31.633,-239.33,79.31,190.05,0.4889,-1.0574,0.3269
31.65,-249.97,92.05,233.8,0.4709,-1.0731,0.3845
31.668,-256.34,99.68,258.09,0.5011,-0.9779,0.4426
31.686,-260.05,109.48,256.97,0.342,-0.8998,0.4318
31.704,-261.31,115.43,255.22,0.3181,-0.8442,0.3723
31.719,-257.25,117.95,254.94,0.2659,-0.7212,0.3225
31.737,-251.3,119.56,249.76,0.2044,-0.6241,0.2366
31.755,-236.88,120.47,242.2,0.1317,-0.568,0.0546
31.771,-222.32,117.53,233.59,0.099,-0.5685,-0.1405
31.786,-206.57,110.46,218.75,0.1259,-0.5299,-0.3357
31.802,-191.52,100.03,193.13,0.0751,-0.5665,-0.4787
31.82,-178.01,81.9,164.64,-0.018,-0.6753,-0.5997
31.838,-166.81,60.9,141.26,-0.0834,-0.8403,-0.7354
31.854,-153.72,43.05,120.89,-0.1922,-0.9403,-0.8974
31.869,-148.05,25.34,114.52,-0.3611,-1.1306,-1.0003
31.887,-146.86,3.92,132.23,-0.4562,-1.339,-1.2531
31.904,-150.57,-14.7,150.64,-0.5421,-1.5635,-1.5864
31.922,-154.42,-39.2,148.47,-0.4118,-1.7167,-1.9266
31.94,-163.03,-75.95,152.67,-0.2762,-1.8885,-2.3799
31.958,-169.89,-123.06,181.23,0.1586,-1.9334,-2.8792
31.976,-172.62,-178.36,184.87,0.8242,-1.8919,-3.1051
31.99,-171.85,-236.32,181.51,1.2292,-1.8812,-3.29
32.007,-167.86,-306.74,187.46,1.4986,-1.7719,-3.778
32.024,-156.24,-382.2,153.72,2.0149,-1.4542,-4.0904
32.041,-133.28,-469.91,61.25,2.5522,-1.5357,-3.8059
32.057,-93.94,-560.21,1.96,2.9753,-1.6616,-3.3393
32.075,-28.07,-627.76,34.93,3.0012,-1.7968,-3.1432
32.093,14.28,-668.99,128.17,2.599,-1.8953,-2.9968
32.106,215.25,-635.04,-50.19,2.4404,-0.426,6.2293
32.12,71.75,-226.8,1.47,3.6165,-1.0706,-1.4244
32.135,119.49,-343.0,193.97,7.0189,-0.3254,0.2415
32.149,188.02,-473.83,-130.34,3.0348,1.2746,0.3821
32.167,329.49,-611.59,-421.26,4.1289,2.5117,0.3982
32.185,572.88,-663.6,-597.94,3.291,1.7733,1.8744
32.199,748.58,-619.2199,-719.39,2.8713,1.0662,3.0314
32.215,868.21,-506.31,-765.8,2.5678,-0.061,3.8186
32.243,985.32,-226.87,-552.44,1.7426,-1.8441,4.3666
32.261,927.64,-89.88,-416.57,1.4532,-2.4995,3.962
32.277,850.71,-20.65,-304.3599,0.9403,-2.7489,3.3979
32.293,741.02,28.98,-219.94,0.5787,-2.6869,2.5302
32.309,635.04,56.98,-147.91,0.3308,-2.318,1.8436
32.327,539.35,73.01,-99.26,0.142,-1.7797,0.9379
32.343,456.33,82.04,-46.55,-0.0356,-1.2487,0.4001
32.36,381.57,83.93,-7.35,-0.1893,-0.9008,0.0029
32.376,325.15,81.97,29.4,-0.1859,-0.5621,-0.3025
32.394,260.4,75.32,59.43,-0.2117,-0.3484,-0.4689
32.411,211.19,64.12,79.73,-0.1034,-0.1634,-0.5319
32.427,165.83,49.4199,83.3,-0.0902,-0.0527,-0.567
32.444,123.9,32.69,94.29,-0.0258,0.0668,-0.6212
32.46,93.03,14.84,117.18,0.0585,0.2835,-0.689
32.476,61.88,-6.09,133.56,0.1742,0.4733,-0.7237
32.493,36.2599,-25.9,125.65,0.3303,0.5724,-0.6919
32.51,11.97,-49.35,100.31,0.3435,0.5348,-0.6627
32.526,-12.6,-70.91,88.55,0.3337,0.4645,-0.7061
32.543,-37.66,-89.67,108.01,0.3518,0.3416,-0.7378
32.556,-60.06,-104.44,131.39,0.4338,0.281,-0.7402
32.57,-78.82,-118.86,152.53,0.5133,0.2274,-0.7129
32.588,-101.36,-135.38,161.28,0.6139,0.1688,-0.6592
32.606,-135.94,-152.53,167.58,0.7593,-0.0034,-0.5714
32.622,-164.78,-163.17,182.07,0.8823,-0.2059,-0.5216
32.636,-189.35,-171.78,198.73,1.0101,-0.305,-0.4309
32.649,-209.37,-178.2899,211.75,1.1355,-0.3855,-0.3586
32.665,-235.34,-182.0,227.5,1.2541,-0.4396,-0.2601
32.679,-254.38,-183.05,234.36,1.362,-0.4826,-0.1825
32.693,-268.24,-181.44,235.76,1.4649,-0.5324,-0.1366
32.722,-294.07,-172.69,206.22,1.4483,-0.69,-0.121
32.739,-304.85,-164.15,186.41,1.3493,-0.8291,-0.1747
32.753,-314.44,-154.14,186.06,1.3005,-0.9638,-0.1864
32.769,-322.28,-141.4,200.2,1.3366,-1.0609,-0.1908
32.787,-331.87,-127.96,213.15,1.3302,-1.1536,-0.1742
32.805,-344.3299,-102.13,228.06,1.3546,-1.2307,-0.1727
32.818,-351.12,-86.66,237.23,1.3014,-1.3171,-0.1712
32.835,-362.32,-63.49,253.26,1.1302,-1.4137,-0.2171
32.853,-371.49,-40.6,275.59,1.1721,-1.5894,-0.1966
32.871,-393.4,-1.96,286.44,1.0623,-1.8007,-0.0805
32.887,-404.67,28.42,276.22,0.9745,-1.9637,0.0151
32.905,-421.4,54.81,257.46,1.0501,-1.951,0.2449
32.922,-428.47,78.68,253.47,1.218,-1.8285,0.2937
32.938,-430.85,102.97,257.39,1.098,-1.6884,0.2552
32.953,-429.8,126.84,260.68,0.912,-1.5835,0.2
32.97,-423.57,156.8,256.97,0.7598,-1.4688,0.1346
32.987,-412.16,185.22,242.55,0.6866,-1.3522,0.0907
33.005,-399.0,212.31,232.12,0.7139,-1.3141,0.0834
33.023,-378.28,234.15,230.58,0.7442,-1.3034,0.0819
33.041,-358.68,249.69,231.7,0.7505,-1.2805,0.0439
33.058,-340.8299,261.31,224.42,0.7163,-1.2365,0.0253
33.076,-320.67,267.96,201.81,0.6973,-1.0965,0.0292
33.091,-299.81,267.54,168.56,0.6563,-1.0204,-0.0248
33.107,-282.66,261.1,132.37,0.6924,-0.9559,-0.0854
33.124,-263.27,248.36,112.91,0.7017,-0.9398,-0.1629
33.142,-242.55,230.44,112.42,0.6914,-0.9638,-0.2923
33.16,-230.09,212.17,120.12,0.5065,-1.0052,-0.3708
33.177,-206.64,195.72,112.21,0.4919,-0.9964,-0.5231
33.195,-185.92,177.94,98.35,0.4343,-1.0072,-0.6051
33.212,-168.28,159.1799,93.31,0.4108,-1.0238,-0.7066
33.228,-153.65,140.21,100.38,0.3777,-1.0311,-0.771
33.245,-134.05,121.66,111.37,0.322,-0.9955,-0.7983
33.261,-119.49,102.2,115.78,0.2937,-0.9174,-0.8071
33.278,-101.57,81.48,112.77,0.2684,-0.8574,-0.7759
33.295,-84.21,59.01,107.45,0.262,-0.8198,-0.7202
33.312,-65.5899,35.56,104.0199,0.2864,-0.752,-0.6905
33.328,-52.5,14.77,103.11,0.3128,-0.7183,-0.6866
33.344,-38.5,-10.36,102.55,0.3577,-0.6919,-0.6978
33.36,-25.9,-36.54,98.0,0.4226,-0.6724,-0.6954
33.376,-16.3799,-63.07,88.06,0.4704,-0.6729,-0.7163
33.392,-5.88,-85.61,74.97,0.5114,-0.6792,-0.7671
33.41,0.77,-114.59,55.02,0.5538,-0.6856,-0.8032
33.428,11.41,-131.6,33.6699,0.586,-0.6983,-0.8691
33.447,25.06,-161.98,17.78,0.6065,-0.709,-0.9028
33.465,34.37,-180.1799,7.14,0.6417,-0.709,-0.9042
33.483,42.28,-198.31,0.56,0.6695,-0.7022,-0.891
33.501,53.83,-213.43,-4.55,0.6827,-0.6993,-0.8447
33.519,63.7,-224.42,-10.36,0.6719,-0.691,-0.7788
33.537,73.22,-234.15,-15.47,0.6544,-0.6461,-0.7339
33.553,83.58,-239.19,-17.29,0.6358,-0.5914,-0.7158
33.57,94.99,-242.48,-19.74,0.5938,-0.5358,-0.6997
33.587,107.66,-243.25,-27.09,0.5338,-0.4738,-0.6885
33.601,119.07,-241.43,-36.68,0.4899,-0.4557,-0.669
33.619,132.58,-236.11,-50.05,0.4431,-0.4557,-0.6436
33.636,146.7899,-228.83,-62.93,0.3904,-0.5187,-0.5875
33.652,156.03,-220.92,-72.31,0.3596,-0.5377,-0.5992
33.668,165.13,-209.86,-78.89,0.3181,-0.569,-0.5895
33.684,171.22,-197.47,-83.16,0.2888,-0.6646,-0.5836
33.698,173.25,-187.95,-89.11,0.2537,-0.7583,-0.5353
33.716,172.76,-172.34,-100.17,0.2332,-0.8496,-0.5036
33.734,169.4,-156.03,-111.72,0.2034,-0.8705,-0.4514
33.751,166.67,-140.91,-123.06,0.1166,-0.8437,-0.4338
33.769,162.61,-126.0,-125.86,0.1249,-0.8466,-0.3777
33.786,155.61,-112.98,-113.96,0.2357,-0.9989,-0.2845
33.803,145.32,-104.37,-88.3399,0.4172,-1.0477,-0.2254
33.818,134.5399,-99.4,-66.71,0.4894,-1.0399,-0.1859
33.836,126.98,-97.3,-57.89,0.4967,-1.0028,-0.2069
33.854,117.95,-94.29,-77.7,0.466,-0.9223,-0.261
33.871,113.19,-91.42,-111.65,0.446,-0.8984,-0.2025
33.889,112.14,-88.69,-144.2,0.5119,-0.9047,-0.2313
33.907,112.28,-85.82,-152.88,0.648,-0.9242,-0.305
33.925,112.21,-82.46,-143.57,0.6612,-0.934,-0.3333
33.942,111.09,-77.49,-128.73,0.5631,-0.955,-0.2278
33.958,108.08,-70.49,-109.48,0.5021,-0.9681,-0.1127
33.975,103.95,-62.93,-79.94,0.4909,-0.9447,-0.1083
33.991,99.05,-55.02,-51.31,0.4382,-0.8774,-0.2152
34.009,93.5199,-46.48,-31.15,0.3616,-0.7744,-0.2752
34.026,87.71,-37.87,-27.79,0.2703,-0.7651,-0.2225
34.043,79.45,-30.24,-33.11,0.2908,-0.8174,-0.1317
34.06,70.28,-24.85,-40.32,0.3225,-0.8681,-0.0756
34.078,53.2,-18.9,-45.22,0.3581,-0.9345,-0.0473
34.094,40.53,-16.3799,-45.08,0.4382,-0.9672,-0.0092
34.112,23.24,-15.68,-42.56,0.4943,-0.9989,0.0527
34.13,5.88,-16.17,-34.93,0.5148,-0.9901,0.1
34.148,-7.7,-17.15,-24.43,0.5319,-0.9179,0.1224
34.163,-17.5,-17.85,-11.4799,0.5197,-0.7969,0.1205
34.178,-26.11,-18.48,0.42,0.5265,-0.6905,0.122
34.193,-31.22,-19.04,9.03,0.5543,-0.6197,0.1161
34.208,-34.3,-19.6,13.86,0.5631,-0.5587,0.0868
34.223,-36.05,-19.4599,14.49,0.5299,-0.528,0.0546
34.238,-37.94,-18.41,12.46,0.5109,-0.5577,-0.0063
34.253,-39.41,-17.15,8.33,0.5084,-0.6124,-0.0575
34.268,-42.07,-16.3799,0.84,0.5368,-0.6905,-0.0766
34.284,-45.71,-15.82,-5.25,0.5738,-0.7437,-0.0575
34.3,-48.58,-16.03,-9.31,0.5924,-0.7773,-0.0234
34.318,-51.8,-16.03,-9.03,0.5973,-0.7783,0.017
34.331,-54.18,-15.33,-5.7399,0.5777,-0.7568,0.0004
34.345,-55.79,-14.35,-0.42,0.5592,-0.7607,-0.0414
34.361,-57.61,-12.11,8.68,0.5597,-0.7612,-0.0336
34.377,-58.45,-9.45,19.74,0.5792,-0.7832,-0.0136
34.391,-59.85,-7.21,25.1299,0.5777,-0.8169,0.0
34.407,-60.9,-3.99,25.41,0.549,-0.8266,0.0122
34.421,-60.97,0.14,21.91,0.484,-0.8266,0.0004
34.436,-61.74,4.69,22.26,0.4689,-0.8662,-0.0541
34.45,-63.91,9.38,30.66,0.506,-0.9164,-0.1249
34.481,-72.45,18.48,51.8,0.5782,-1.1048,-0.2342
34.498,-78.54,24.29,54.11,0.5021,-1.1799,-0.2537
34.515,-85.12,31.01,52.43,0.4333,-1.1892,-0.2542
34.528,-90.65,37.59,52.78,0.4006,-1.1424,-0.2508
34.542,-94.29,43.96,56.28,0.3713,-1.1053,-0.2386
34.558,-98.49,49.56,62.86,0.3616,-1.0887,-0.2488
34.574,-104.0199,57.4,74.55,0.3796,-1.0745,-0.2161
34.588,-107.66,61.67,85.54,0.425,-1.0496,-0.161
34.604,-110.11,65.45,95.55,0.4401,-1.0267,-0.0761
34.618,-112.14,69.0899,104.3,0.3996,-0.9662,-0.0395
34.645,-111.16,77.56,109.41,0.2737,-0.8486,-0.0941
34.659,-109.2,82.95,106.61,0.2361,-0.8442,-0.1381
34.676,-106.82,88.2,101.85,0.2542,-0.9974,-0.2059
34.692,-104.3,92.61,99.19,0.2737,-0.9228,-0.2474
34.709,-101.71,96.32,98.98,0.2913,-0.9564,-0.3186
34.724,-99.19,99.19,99.47,0.2664,-0.9652,-0.3811
34.741,-96.04,103.53,99.47,0.2215,-0.9647,-0.4362
34.759,-91.91,107.59,97.0199,0.1947,-0.9686,-0.5114
34.776,-88.2699,110.88,92.05,0.1512,-0.9613,-0.5719
34.793,-83.72,114.59,87.99,0.118,-0.9379,-0.5841
34.81,-79.5899,117.32,86.24,0.1112,-0.9164,-0.586
34.826,-74.48,118.86,85.68,0.1073,-0.8701,-0.5455
34.844,-71.19,118.93,86.31,0.1278,-0.8286,-0.5411
34.862,-66.43,115.85,86.8,0.1971,-0.7808,-0.5338
34.88,-61.95,109.41,82.81,0.2869,-0.7886,-0.5465
34.896,-59.78,102.48,74.13,0.3533,-0.8237,-0.5138
34.913,-58.17,93.94,57.75,0.3411,-0.8583,-0.5319
34.929,-56.7,85.75,41.65,0.3035,-0.8364,-0.5973
34.947,-54.67,80.78,35.14,0.2737,-0.7832,-0.6519
34.96,-50.2599,73.15,40.53,0.2757,-0.7359,-0.7105
34.974,-47.32,67.55,52.36,0.2928,-0.711,-0.7202
34.99,-43.33,62.51,63.7,0.3215,-0.709,-0.6914
35.019,-33.81,47.39,66.29,0.3435,-0.6875,-0.6241
35.036,-28.7,38.9199,57.61,0.3298,-0.6714,-0.6187
35.052,-23.52,30.52,47.6699,0.3411,-0.6656,-0.6505
35.069,-18.41,22.33,35.91,0.3655,-0.6729,-0.7173
35.084,-13.79,15.4,24.99,0.4055,-0.6846,-0.7842
35.101,-8.4,7.07,15.12,0.404,-0.6939,-0.8144
35.119,-1.89,1.12,5.46,0.3479,-0.6905,-0.7725
35.135,2.59,-2.8,-2.03,0.3054,-0.7315,-0.7251
35.151,7.28,-5.25,-5.11,0.3186,-0.772,-0.7422
35.167,11.27,-7.84,-3.01,0.3581,-0.8008,-0.7661
35.183,14.21,-9.38,0.63,0.3381,-0.8486,-0.7461
35.198,16.24,-9.59,2.38,0.2986,-0.911,-0.7046
35.214,17.08,-8.89,5.32,0.301,-0.9516,-0.6773
35.231,17.99,-7.98,13.3,0.3401,-0.9345,-0.6914
35.247,19.11,-6.93,24.99,0.3577,-0.9325,-0.6997
35.265,19.32,-5.95,36.47,0.3938,-0.9559,-0.7027
35.281,19.25,-5.04,41.58,0.3635,-0.9696,-0.6563
35.299,19.11,-2.24,41.23,0.2947,-0.9623,-0.6046
35.313,18.97,0.77,41.23,0.2542,-0.9315,-0.5631
35.331,20.02,4.83,47.88,0.2166,-0.8383,-0.5001
35.346,21.2099,9.1,59.57,0.2044,-0.771,-0.4582
35.363,23.3799,12.32,79.94,0.241,-0.7017,-0.4172
35.379,25.76,13.58,102.3399,0.2991,-0.6485,-0.3791
35.396,28.56,13.3,118.02,0.3528,-0.5963,-0.3533
35.414,32.9,11.34,119.91,0.3708,-0.5246,-0.3679
35.43,36.33,8.82,109.83,0.3767,-0.4845,-0.4065
35.444,39.97,7.0,95.62,0.3816,-0.4538,-0.4362
35.461,44.38,4.41,75.95,0.3796,-0.4162,-0.4543
35.479,48.02,3.22,54.32,0.3728,-0.4026,-0.4601
35.497,52.22,2.03,25.48,0.3503,-0.404,-0.4675
35.51,55.51,2.45,3.78,0.301,-0.4387,-0.4465
35.525,56.56,4.27,-26.95,0.22,-0.4845,-0.4201
35.542,56.07,8.47,-67.13,0.1307,-0.5387,-0.3874
35.557,52.78,13.58,-103.95,0.0663,-0.6226,-0.3396
35.574,47.11,19.18,-130.2,0.0527,-0.6993,-0.3045
35.592,38.0099,27.37,-142.1,0.0819,-0.7754,-0.2786
35.61,26.46,31.85,-140.7,0.1234,-0.8588,-0.2723
35.624,10.29,36.68,-132.09,0.1454,-0.9193,-0.2888
35.641,-2.8699,39.69,-117.81,0.16,-0.952,-0.2967
35.657,-18.69,42.28,-104.93,0.18,-0.9974,-0.3245
35.674,-34.65,44.52,-93.1,0.1966,-1.0174,-0.3635
35.705,-60.97,48.23,-89.46,0.2113,-1.0828,-0.4645
35.723,-81.83,50.19,-97.44,0.2049,-1.1492,-0.4977
35.738,-91.91,51.52,-108.57,0.2039,-1.1951,-0.5455
35.756,-107.38,53.69,-124.11,0.1805,-1.2287,-0.5694
35.772,-119.56,55.51,-132.3,0.1361,-1.2287,-0.5734
35.79,-131.11,58.31,-131.1799,0.1317,-1.2097,-0.5485
35.807,-137.97,61.6,-121.17,0.1215,-1.178,-0.5167
35.825,-144.69,65.31,-101.01,0.1346,-1.1316,-0.4948
35.838,-147.21,69.16,-77.21,0.1405,-1.0975,-0.4733
35.854,-148.12,73.5,-41.93,0.1649,-1.0326,-0.4767
35.871,-145.88,78.96,-0.56,0.2059,-0.9642,-0.488
35.888,-140.49,84.7,40.95,0.2571,-0.8891,-0.4972
35.903,-133.42,88.41,71.75,0.2962,-0.8252,-0.5104
35.919,-123.06,90.58,96.11,0.3401,-0.7817,-0.5607
35.934,-112.98,90.44,104.23,0.4011,-0.7432,-0.6114
35.95,-100.1,87.71,97.16,0.4245,-0.7061,-0.6636
35.966,-87.08,81.76,78.89,0.4177,-0.6875,-0.71
35.983,-74.69,72.8,50.12,0.4226,-0.6783,-0.7603
35.998,-65.1,63.21,21.07,0.4401,-0.7036,-0.813
36.012,-56.28,51.1699,3.15,0.4621,-0.7241,-0.8544
36.027,-49.7,38.64,-7.56,0.4738,-0.7368,-0.8862
36.041,-39.62,24.7099,-4.55,0.5363,-0.7188,-0.9379
36.072,-25.2,-5.25,23.17,0.6656,-0.7032,-0.9672
36.085,-14.21,-29.26,31.22,0.7349,-0.6768,-0.9652
36.099,-6.3,-47.81,36.89,0.7432,-0.6178,-0.9574
36.116,3.57,-66.92,36.89,0.7422,-0.5431,-0.955
36.13,15.4,-84.98,33.18,0.7227,-0.4821,-0.9193
36.145,25.2,-102.55,26.53,0.69,-0.423,-0.8769
36.177,48.3,-138.95,9.9399,0.6666,-0.3279,-0.7729
36.194,59.57,-155.89,1.26,0.7085,-0.3274,-0.7417
36.21,69.58,-171.22,-9.66,0.7329,-0.3313,-0.7305
36.225,81.06,-183.4,-20.3,0.7529,-0.3259,-0.7359
36.241,91.7699,-195.37,-32.62,0.7442,-0.3196,-0.752
36.258,106.61,-204.19,-44.87,0.7085,-0.3328,-0.7803
36.276,116.13,-209.44,-57.4,0.6871,-0.343,-0.8281
36.289,131.1799,-210.84,-64.75,0.6007,-0.3679,-0.9125
36.303,139.37,-209.37,-73.22,0.5343,-0.3894,-0.976
36.318,149.59,-206.71,-81.83,0.4855,-0.4113,-1.0082
36.344,165.62,-196.14,-93.24,0.4216,-0.4523,-0.9867
36.36,174.44,-189.35,-95.83,0.3782,-0.5123,-0.9447
36.375,179.34,-180.46,-97.16,0.3308,-0.586,-0.8915
36.391,183.19,-172.83,-93.45,0.3264,-0.6182,-0.832
36.409,185.57,-163.45,-81.2,0.3157,-0.6285,-0.8115
36.426,186.55,-156.1,-67.2699,0.2991,-0.6519,-0.7944
36.443,186.13,-149.59,-50.2599,0.2884,-0.6646,-0.7559
36.459,185.22,-144.83,-33.32,0.2971,-0.6607,-0.7222
36.476,182.21,-139.51,-22.68,0.2727,-0.6641,-0.6817
36.494,178.15,-135.03,-21.56,0.22,-0.6914,-0.6353
36.511,173.39,-130.48,-24.43,0.1747,-0.6856,-0.5992
36.524,167.65,-128.38,-32.62,0.1898,-0.7437,-0.5382
36.54,162.5399,-124.6,-46.34,0.1893,-0.8115,-0.5407
36.568,153.09,-116.83,-66.01,0.1459,-0.852,-0.4514
36.585,146.16,-111.79,-69.3,0.1693,-0.9296,-0.528
36.601,140.42,-106.82,-62.37,0.1708,-0.9774,-0.4372
36.619,130.97,-102.55,-49.84,0.1927,-1.0125,-0.404
36.635,122.29,-99.54,-30.1,0.2235,-1.0243,-0.3494
36.652,113.75,-97.65,-7.14,0.2225,-1.0106,-0.2854
36.669,105.07,-96.67,15.68,0.2415,-1.0008,-0.2288
36.687,96.74,-97.0899,33.53,0.2479,-1.0077,-0.1576
36.704,88.41,-98.0,36.96,0.2508,-1.0335,-0.0912
36.721,80.43,-99.05,34.93,0.2781,-1.0111,-0.0624
36.734,75.04,-99.82,31.01,0.2864,-0.9476,-0.0492
36.748,70.98,-100.38,27.3,0.2864,-0.8984,-0.0268
36.762,68.81,-100.8,21.2099,0.2806,-0.8461,-0.0224
36.776,67.48,-100.8,14.0,0.2849,-0.8134,0.0287
36.793,67.48,-100.5199,5.18,0.2874,-0.7842,0.0629
36.808,68.53,-99.89,-2.94,0.284,-0.7681,0.1098
36.822,69.65,-99.12,-11.83,0.2708,-0.7759,0.1376
36.837,70.21,-98.49,-19.95,0.2903,-0.79,0.1673
36.854,71.4,-97.58,-26.32,0.3113,-0.812,0.1966
36.868,72.24,-97.23,-29.54,0.344,-0.8471,0.2083
36.898,73.43,-96.18,-34.09,0.342,-0.8837,0.2093
36.914,73.85,-95.48,-37.73,0.3298,-0.8837,0.2078
36.931,74.3399,-94.36,-42.91,0.3191,-0.8949,0.2176
36.949,74.9,-93.03,-46.2,0.3323,-0.9003,0.222
36.962,75.11,-92.33,-45.99,0.3513,-0.9179,0.2337
36.976,74.97,-91.98,-45.0099,0.3777,-0.9242,0.2391
36.993,75.6,-91.7699,-43.75,0.4226,-0.9076,0.2498
37.007,76.65,-91.8399,-45.22,0.4396,-0.8818,0.263
37.023,78.05,-91.49,-50.54,0.447,-0.85,0.2586
37.049,83.16,-88.55,-62.44,0.4387,-0.7847,0.2415
37.066,86.66,-85.61,-70.7699,0.4621,-0.7666,0.2371
37.079,89.6,-83.37,-77.42,0.4782,-0.7715,0.2474
37.097,92.12,-79.45,-87.15,0.6207,-0.7832,0.2542
37.115,94.22,-76.16,-90.16,0.566,-0.7798,0.2649
37.128,94.64,-74.13,-88.13,0.6246,-0.771,0.2776
37.143,95.2,-72.5899,-83.86,0.6656,-0.7607,0.2845
37.159,94.57,-71.26,-80.01,0.6827,-0.7461,0.2967
37.174,93.45,-70.21,-75.53,0.7017,-0.7119,0.2981
37.189,92.4,-69.0899,-71.26,0.6993,-0.6792,0.2937
37.206,91.21,-68.18,-66.01,0.6919,-0.6358,0.2874
37.221,90.23,-66.01,-60.83,0.6978,-0.5885,0.3084
37.238,90.58,-55.93,-56.49,0.9247,-0.4718,0.5763
37.255,81.13,-35.98,-52.08,0.77,-0.5241,0.404
37.271,71.96,-22.68,-59.29,0.6914,-0.5299,0.3381
37.286,67.76,-15.68,-56.91,0.6875,-0.5163,0.2796
37.315,64.61,-7.21,-41.09,0.5655,-0.5153,0.1805
37.333,65.31,-3.57,-32.06,0.5631,-0.5982,0.1834
37.351,66.08,-1.05,-16.17,0.5553,-0.5968,0.1834
37.369,69.65,2.8699,-1.4,0.5777,-0.568,0.2308
37.387,74.13,6.23,3.22,0.5563,-0.4206,0.2649
37.403,74.2,8.61,3.29,0.4845,-0.4426,0.3079
37.419,73.08,16.03,13.72,0.3884,-0.4162,0.2298
37.435,76.0899,19.81,46.06,0.4967,-0.4206,0.4187
37.453,72.5899,22.47,78.05,0.4675,-0.5914,0.4645
37.471,70.35,25.27,99.68,0.4362,-0.5123,0.4026
37.484,65.94,26.25,98.07,0.4309,-0.5885,0.508
37.498,60.76,27.58,84.7699,0.4645,-0.647,0.4226
37.516,56.7,31.15,64.05,0.5289,-0.6017,0.3855
37.534,59.22,35.21,47.39,0.5885,-0.5943,0.4191
37.548,60.69,39.34,36.4,0.5938,-0.7705,0.4997
37.562,60.9,42.14,26.88,0.7056,-0.8408,0.5816
37.576,55.58,46.97,13.93,0.5797,-1.3219,0.6705
37.592,47.18,50.05,4.9699,0.6963,-1.1038,0.8174
37.607,43.2599,51.31,3.15,0.9925,-1.2302,0.9691
37.636,28.21,46.06,-16.31,0.9242,-1.3517,1.096
37.654,24.5,43.19,-44.52,0.833,-1.1775,1.0618
37.668,20.86,42.63,-69.37,0.7607,-1.1038,0.994
37.686,17.08,43.47,-90.65,0.7266,-0.9696,0.9594
37.703,13.65,44.1699,-100.94,0.71,-0.933,0.9071
37.719,9.45,43.89,-101.08,0.6295,-0.9125,0.9598
37.737,3.99,43.19,-99.61,0.628,-0.8774,0.9945
37.75,-2.73,43.05,-97.37,0.5631,-0.7876,1.0296
37.764,-7.91,41.65,-90.93,0.5436,-0.7232,0.9115
37.78,-11.6899,39.97,-80.99,0.507,-0.7139,0.915
37.808,-21.14,30.31,-57.61,0.4738,-0.6685,0.9413
37.825,-25.06,24.08,-51.87,0.3938,-0.6095,0.9071
37.844,-27.93,16.24,-51.03,0.2903,-0.4187,0.8174
37.861,-26.6,11.41,-53.41,0.1625,-0.2361,0.7178
37.876,-21.91,9.8,-60.83,0.0722,-0.1254,0.6295
37.889,-16.24,10.71,-68.46,0.0039,-0.0512,0.5792
37.903,-7.49,13.23,-68.53,-0.0029,0.0356,0.5031
37.921,2.8,16.24,-62.09,0.02,0.0771,0.4377
37.936,14.56,16.87,-53.27,0.1288,0.0678,0.3904
37.965,30.17,15.19,-37.66,0.3933,-0.1146,0.5929
37.981,34.86,12.32,-30.24,0.6246,-0.2474,0.8003
37.994,36.82,8.54,-25.34,0.7354,-0.3874,0.9555
38.008,36.12,3.29,-18.69,0.7973,-0.4909,1.0086
38.022,34.16,-2.45,-12.88,0.8227,-0.5397,0.9964
38.05,29.47,-9.38,-10.71,0.7993,-0.4557,0.911
38.064,26.53,-9.52,-8.54,0.7686,-0.403,0.8588
38.082,23.52,-7.84,3.43,0.7622,-0.362,0.812
38.095,20.44,-5.39,13.51,0.7964,-0.2898,0.7773
38.109,18.2,-4.76,16.94,0.8169,-0.2347,0.7642
38.125,16.66,-5.39,16.45,0.8213,-0.1908,0.7442
38.141,15.89,-6.58,16.45,0.8056,-0.1639,0.6988
38.156,15.47,-8.54,13.09,0.7334,-0.142,0.6407
38.185,13.09,-9.7299,-1.54,0.5865,-0.2025,0.5348
38.199,11.62,-8.54,0.49,0.5455,-0.2196,0.5026
38.217,6.86,-6.23,7.63,0.5006,-0.2254,0.4675
38.235,0.84,-3.29,12.46,0.4474,-0.2191,0.4416
38.252,-4.69,-0.63,13.79,0.4138,-0.2386,0.4104
38.268,-9.03,2.17,13.44,0.4157,-0.2586,0.403
38.286,-13.09,5.53,11.97,0.4343,-0.2898,0.4289
38.3,-18.34,8.96,9.87,0.4753,-0.3503,0.5055
38.318,-23.03,13.65,6.44,0.4748,-0.3889,0.5694
38.336,-29.89,16.94,5.7399,0.5128,-0.4069,0.6158
38.354,-35.49,19.04,2.73,0.6036,-0.3855,0.6578
38.372,-45.29,18.2,-7.7,0.7271,-0.3791,0.7139
38.39,-54.6,14.35,-19.32,0.8442,-0.446,0.8276
38.408,-67.06,7.77,-19.95,0.8871,-0.5372,0.9555
38.426,-78.05,2.52,-17.43,0.8705,-0.5846,1.0965
38.444,-88.62,-1.05,-22.75,0.7607,-0.5929,1.1824
38.46,-94.85,-1.12,-31.01,0.6592,-0.5685,1.2585
38.476,-100.94,1.4,-33.74,0.5621,-0.5206,1.2741
38.494,-104.0199,6.86,-31.36,0.485,-0.447,1.2297
38.508,-104.86,11.6899,-31.99,0.4489,-0.3601,1.1375
38.523,-102.83,14.77,-36.05,0.4631,-0.2825,1.0945
38.541,-100.94,17.64,-44.66,0.546,-0.1849,0.935
38.559,-98.56,18.1299,-57.96,0.5563,-0.142,0.8744
38.577,-97.23,15.26,-73.29,0.6661,-0.1668,0.81
38.594,-97.16,11.13,-83.72,0.6934,-0.2161,0.7505
38.612,-100.31,6.02,-94.64,0.6509,-0.2708,0.6783
38.627,-105.07,3.43,-99.54,0.586,-0.3606,0.5865
38.643,-115.22,2.45,-101.71,0.5431,-0.427,0.4543
38.661,-126.35,3.99,-97.79,0.5123,-0.5109,0.3118
38.678,-137.69,6.65,-98.63,0.4645,-0.5533,0.2708
38.693,-149.24,11.13,-108.57,0.3947,-0.6187,0.2337
38.709,-164.71,15.33,-114.73,0.3796,-0.6734,0.1698
38.725,-181.7899,21.14,-107.24,0.3923,-0.7246,0.0722
38.743,-194.67,27.86,-89.67,0.4382,-0.8086,0.0058
38.761,-222.53,31.36,-86.5199,0.5421,-0.9023,-0.0419
38.775,-237.79,31.64,-94.22,0.6505,-0.9745,-0.0502
38.79,-260.4,30.52,-97.65,0.69,-1.0438,-0.0512
38.808,-278.32,29.4,-75.95,0.75,-1.1502,-0.0131
38.824,-311.29,30.87,-47.32,0.8012,-1.2053,0.0444
38.841,-336.35,35.63,-28.84,0.8208,-1.1902,0.1234
38.856,-358.05,42.7,-16.87,0.8134,-1.1916,0.2186
38.873,-380.45,53.97,4.9699,0.8305,-1.1843,0.4157
38.888,-398.79,67.55,17.29,0.7637,-1.1614,0.5646
38.905,-416.0799,84.91,22.19,0.7041,-1.1521,0.6958
38.923,-429.52,109.06,39.13,0.6758,-1.2766,0.7642
38.941,-440.37,135.17,58.52,0.5304,-1.3444,0.8169
38.957,-447.72,164.01,66.15,0.263,-1.4557,0.7851
38.973,-450.24,191.8,71.12,0.0566,-1.4874,0.7671
38.991,-448.49,229.67,81.2,-0.1527,-1.525,0.7285
39.007,-439.88,258.51,88.97,-0.303,-1.768,0.8276
39.025,-440.51,285.1099,83.44,-0.5992,-1.8958,0.6763
39.039,-430.92,298.62,107.87,-0.3411,-1.887,0.5777
39.056,-412.79,300.79,141.82,-0.22,-1.7831,0.2771
39.072,-384.93,289.1,187.0399,-0.1498,-1.6552,-0.1068
39.09,-346.15,274.82,234.43,-0.1532,-1.4547,-0.5441
39.109,-262.01,224.91,227.08,-0.3147,-1.1141,-1.3307
39.126,-196.0,168.0,181.16,-0.4431,-0.7773,-2.0818
39.144,-131.32,77.28,149.17,-0.4206,-0.8559,-2.8386
39.162,-85.68,22.26,124.81,-0.4274,-1.2492,-3.517
39.176,-40.6,-94.57,124.32,0.1268,-1.7055,-4.1436
39.191,-14.35,-199.78,136.92,0.7066,-1.8675,-4.5706
39.209,7.84,-351.19,196.56,1.4932,-1.9866,-4.8839
39.225,13.86,-464.38,270.76,2.0208,-1.7821,-5.0625
39.241,15.19,-600.25,261.94,3.0607,-0.8569,-4.592
39.259,53.06,-762.09,41.86,3.7048,0.4367,-3.5145
39.276,164.78,-884.59,-161.0,4.4661,1.1126,-1.9807
39.293,354.9,-1394.26,-1465.38,-2.867,6.6182,4.7292
39.311,161.98,-441.07,-927.36,4.6447,2.153,4.4837
39.328,273.49,-489.51,1119.86,7.3341,-7.9368,2.3448
39.344,151.69,-450.59,1035.23,-0.0097,-4.5393,0.1288
39.361,35.28,-547.75,484.89,0.1717,-1.8348,-1.482
39.377,34.09,-484.82,364.7,0.6983,-0.7076,-2.317
39.395,8.54,-434.49,550.69,0.9398,-0.4743,-2.0925
39.413,-15.47,-377.23,551.25,1.3717,-0.0234,-1.3093
39.431,-3.08,-347.48,353.92,1.5879,0.1986,-0.9418
39.449,37.1,-343.7,164.57,1.8368,0.2166,-0.3362
39.467,76.0199,-359.52,123.27,1.8836,0.3264,0.0746
39.485,99.19,-381.5,88.2,1.6928,0.4128,0.1956
39.503,131.74,-388.3599,3.92,1.3073,0.2654,0.1956
39.519,157.64,-378.84,-51.31,0.8827,-0.0644,0.3581
39.535,173.32,-360.43,-76.72,0.8203,-0.4279,0.4533
39.553,179.48,-339.64,-68.81,0.8052,-0.6075,0.6646
39.57,176.96,-321.72,-55.23,0.8881,-0.5407,0.933
39.588,170.94,-301.56,-62.72,0.8383,-0.3835,1.0082
39.605,166.32,-282.59,-65.31,0.8217,-0.1605,0.9398
39.622,157.99,-262.22,-75.11,0.7471,0.0424,0.7973
39.639,156.17,-244.51,-108.92,0.8266,0.2859,0.6812
39.654,158.97,-228.97,-167.44,0.8608,0.3991,0.5973
39.669,165.48,-215.46,-186.76,1.0003,0.386,0.5343
39.684,167.37,-209.72,-163.38,1.1853,0.2513,0.4718
39.7,162.96,-209.72,-127.75,1.2287,0.1171,0.4396
39.717,150.15,-217.49,-128.94,1.2517,0.1268,0.4445
39.735,138.81,-223.93,-183.4,1.2034,0.3435,0.3581
39.751,138.39,-228.48,-246.4,1.1014,0.2269,0.3162
39.766,134.89,-231.07,-230.37,1.179,-0.0414,0.2064
39.782,123.06,-236.81,-147.98,1.1926,-0.3494,0.201
39.8,104.37,-247.8,-54.74,1.179,-0.3913,0.2308
39.813,78.4,-257.18,-38.99,1.1765,-0.3254,0.2357
39.827,58.31,-265.09,-22.12,1.2185,-0.1532,0.1834
39.842,42.07,-275.38,-10.08,1.2658,-0.0634,0.1298
39.856,28.7,-282.31,6.65,1.2824,-0.0805,0.121
39.873,13.79,-287.7,36.68,1.3629,-0.1654,0.1625
39.902,-24.57,-295.4,86.45,1.3888,-0.261,0.1381
39.919,-49.91,-291.2,111.09,1.341,-0.3259,0.0839
39.937,-73.15,-281.05,137.13,1.3112,-0.464,0.0507
39.954,-97.58,-267.75,161.42,1.3385,-0.5148,0.0112
39.972,-126.98,-249.83,190.61,1.4474,-0.6329,0.0624
39.989,-155.6799,-232.05,217.28,1.5045,-0.7681,0.0858
40.007,-186.13,-210.7,243.95,1.4698,-0.9437,0.0907
40.022,-212.94,-186.41,265.3,1.4532,-1.0155,0.0961
40.04,-248.15,-159.67,297.01,1.4849,-1.0794,0.1639
40.057,-276.99,-131.0399,329.77,1.5137,-1.0711,0.202
40.073,-301.77,-100.73,353.92,1.5332,-1.0545,0.2152
40.089,-320.53,-57.05,364.07,1.5757,-1.1511,0.2727
40.106,-341.74,-47.04,363.09,1.6562,-1.2195,0.3523
40.122,-360.99,-21.84,351.05,1.705,-1.3122,0.4435
40.14,-378.63,5.39,333.48,1.6001,-1.3366,0.5358
40.156,-394.73,26.53,314.02,1.4503,-1.4108,0.5987
40.172,-408.03,52.57,302.89,1.3288,-1.4044,0.5929
40.19,-415.8,85.82,300.5799,1.179,-1.3629,0.5714
40.208,-420.21,118.79,312.27,1.0848,-1.3224,0.4865
40.224,-418.6,154.42,331.31,1.0614,-1.2697,0.3708
40.241,-410.34,189.98,361.2,1.0814,-1.2546,0.3494
40.257,-401.59,225.68,392.42,1.0872,-1.2653,0.3411
40.273,-384.93,255.99,414.19,1.1145,-1.2727,0.3879
40.291,-367.15,291.8299,428.68,1.1302,-1.24,0.4211
40.307,-340.48,314.65,428.12,1.1165,-1.1838,0.3894
40.325,-313.6,340.62,415.24,1.0701,-1.1219,0.4279
40.343,-284.76,355.39,388.43,1.0218,-1.0667,0.3977
40.361,-245.07,361.27,357.91,0.9818,-1.0345,0.3962
40.379,-221.55,359.17,317.52,0.9886,-1.0072,0.3181
40.397,-197.33,350.84,282.1,0.954,-0.9403,0.2405
40.415,-181.37,334.88,241.78,0.9476,-0.8998,0.0736
40.433,-167.44,316.89,206.08,0.9193,-0.8447,-0.0517
40.451,-159.1799,292.53,164.01,0.914,-0.8286,-0.2908
40.467,-154.28,271.81,135.24,0.8637,-0.8154,-0.4718
40.485,-151.9,242.13,103.95,0.8217,-0.8242,-0.5763
40.501,-156.87,216.51,72.03,0.8437,-0.7729,-0.6378
40.517,-144.62,186.9,87.29,0.8671,-0.6524,-0.7359
40.535,-151.06,149.45,96.39,0.8544,-0.6827,-0.6583
40.548,-140.49,125.16,104.37,0.8974,-0.6002,-0.6651
40.564,-133.77,92.68,108.99,0.8842,-0.5309,-0.6261
40.58,-128.8,64.61,103.18,0.8476,-0.4616,-0.6222
40.594,-123.69,36.82,71.68,0.831,-0.383,-0.6241
40.609,-119.63,9.59,72.31,0.81,-0.3132,-0.6387
40.637,-102.62,-41.79,31.57,0.7544,-0.2874,-0.6866
40.655,-91.56,-72.31,0.84,0.732,-0.262,-0.7339
40.672,-78.75,-92.26,-26.32,0.6392,-0.2127,-0.7964
40.69,-59.22,-113.26,-47.32,0.5787,-0.2054,-0.8608
40.708,-41.79,-130.76,-63.07,0.5411,-0.2386,-0.8959
40.726,-20.79,-140.7,-72.45,0.4821,-0.2732,-0.9247
40.741,-4.9699,-145.74,-79.5899,0.3791,-0.3235,-0.9681
40.757,13.09,-147.28,-84.07,0.3054,-0.3635,-0.9886
40.772,28.0,-145.95,-86.73,0.2898,-0.3952,-0.9691
40.786,42.14,-143.64,-86.94,0.3015,-0.426,-0.9413
40.801,54.81,-140.42,-86.73,0.3215,-0.4958,-0.9101
40.817,66.22,-136.57,-88.48,0.3762,-0.5899,-0.9208
40.832,73.78,-133.14,-91.49,0.3904,-0.6675,-0.9057
40.85,79.31,-129.2899,-95.06,0.403,-0.729,-0.9135
40.863,83.58,-124.25,-96.18,0.4016,-0.8061,-0.8852
40.877,85.54,-119.7,-95.62,0.3996,-0.8466,-0.8496
40.893,86.17,-115.15,-92.12,0.3874,-0.9037,-0.7954
40.922,80.08,-105.35,-83.79,0.3498,-1.0208,-0.6622
40.94,75.39,-99.68,-73.22,0.322,-1.0374,-0.6109
40.958,70.14,-93.45,-55.65,0.2864,-0.9872,-0.5548
40.976,64.47,-88.97,-31.08,0.2991,-0.9628,-0.5148
40.991,59.99,-86.17,-1.05,0.3352,-0.9286,-0.4899
41.008,54.11,-84.7,30.24,0.3786,-0.8901,-0.4967
41.026,47.81,-85.47,57.4,0.447,-0.871,-0.5265
41.041,43.05,-87.08,76.37,0.4919,-0.8242,-0.5948
41.057,38.64,-89.67,84.8399,0.5202,-0.7593,-0.6402
41.075,36.68,-93.1,84.07,0.5368,-0.6773,-0.6734
41.093,35.35,-95.2699,72.45,0.528,-0.5885,-0.691
41.11,36.61,-98.42,49.77,0.4845,-0.4904,-0.6607
41.124,39.06,-99.19,31.99,0.4206,-0.4382,-0.628
41.138,42.28,-98.7,8.89,0.3513,-0.3869,-0.5929
41.151,46.69,-97.72,-14.35,0.3274,-0.3664,-0.5446
41.165,51.73,-95.62,-31.78,0.2762,-0.3542,-0.5114
41.183,56.0,-92.68,-55.02,0.2581,-0.3772,-0.4943
41.211,66.01,-84.56,-76.79,0.2225,-0.4416,-0.4294
41.229,70.63,-79.24,-82.11,0.2337,-0.4758,-0.4065
41.247,72.87,-75.04,-83.51,0.2479,-0.5138,-0.3879
41.26,73.22,-71.89,-83.44,0.2581,-0.5533,-0.3708
41.275,72.31,-69.0199,-84.28,0.2747,-0.6104,-0.3611
41.29,70.42,-66.29,-86.17,0.2688,-0.6617,-0.366
41.306,66.5,-63.28,-88.62,0.2874,-0.7071,-0.3684
41.324,61.81,-60.62,-90.0899,0.3069,-0.7402,-0.3938
41.337,55.58,-58.31,-89.81,0.2835,-0.7354,-0.3884
41.352,50.75,-56.0,-89.18,0.2806,-0.7529,-0.3772
41.367,45.0099,-53.69,-88.48,0.2537,-0.7768,-0.362
41.382,39.2,-50.82,-87.71,0.2352,-0.8037,-0.3264
41.397,31.5,-48.16,-88.9,0.2391,-0.8705,-0.2908
41.412,23.24,-45.78,-90.86,0.2322,-0.9252,-0.2845
41.43,14.14,-44.1,-91.14,0.2713,-0.9628,-0.2923
41.446,1.75,-43.05,-86.8,0.3152,-0.9818,-0.3586
41.464,-7.14,-42.7,-77.07,0.3518,-0.9813,-0.3928
41.478,-17.78,-42.4199,-66.78,0.3577,-0.9638,-0.446
41.492,-26.18,-41.72,-56.21,0.3498,-0.9525,-0.4875
41.507,-33.53,-41.09,-47.32,0.3747,-0.9462,-0.5192
41.523,-40.74,-39.83,-41.58,0.3289,-0.9311,-0.5333
41.554,-53.97,-34.09,-38.5,0.3123,-0.9223,-0.5631
41.571,-60.06,-31.5,-42.56,0.3635,-0.9559,-0.6158
41.588,-65.94,-29.89,-50.2599,0.4099,-0.972,-0.691
41.606,-71.82,-28.0,-56.7,0.4187,-0.9882,-0.7417
41.624,-76.58,-25.06,-62.09,0.3606,-0.9667,-0.7632
41.642,-79.31,-21.07,-62.37,0.322,-0.9394,-0.7715
41.658,-81.48,-17.5,-57.12,0.2903,-0.8813,-0.7485
41.676,-82.6,-12.88,-46.55,0.2791,-0.8378,-0.6905
41.692,-82.11,-8.61,-33.6699,0.2561,-0.7939,-0.6436
41.71,-79.45,-4.9,-20.16,0.2732,-0.7554,-0.5768
41.728,-76.51,-1.89,-5.95,0.3059,-0.7154,-0.5607
41.746,-72.31,-0.56,6.16,0.3401,-0.668,-0.5665
41.764,-64.89,0.14,13.09,0.3864,-0.6265,-0.6134
41.782,-58.38,-0.07,15.33,0.424,-0.6119,-0.689
41.798,-52.78,-0.21,13.44,0.4309,-0.5934,-0.7559
