timestamp,gyrox,gyroy,gyroz,accelx,accely,accelz
2.571,-28.63,148.61,-845.6,1.0921,-1.0092,-0.3972
2.744,43.19,97.58,-344.89,-0.9165,0.9145,-0.4529
2.822,4.2,50.54,-35.63,-0.6651,0.7369,-0.3689
2.985,-134.75,0.14,-135.59,-0.5305,0.5656,0.3738
3.107,-130.27,-38.36,-44.87,-0.4041,0.3792,0.49
3.23,-47.18,-69.44,51.59,-1.1122,0.7086,0.4992
3.342,-1.82,-75.6,-93.24,-0.8208,1.0087,0.9975
3.361,5.39,-57.47,50.96,-0.9697,1.2122,0.937
3.378,5.81,-32.13,-46.27,-1.0131,1.0394,1.097
3.53,44.59,-26.81,-4.9,-0.0166,0.61,0.3621
3.642,49.77,-50.4,-42.98,-0.3797,0.6403,0.5739
3.723,73.29,-36.47,-54.18,-0.5978,0.6471,0.6222
3.882,126.35,-43.68,-155.54,-0.53,0.9174,0.4856
3.968,155.19,-38.29,-19.95,-0.8984,0.4817,0.2777
4.124,151.06,-12.53,-78.12,-0.4333,0.8428,0.063
4.205,206.22,-16.45,-18.06,-0.4504,0.978,0.0459
4.362,238.56,-76.65,68.25,-0.3948,1.0941,-0.1469
4.442,284.55,-109.2,145.04,-0.6798,1.7124,-0.141
4.602,300.58,-211.68,184.38,-0.3709,0.9887,0.345
4.683,227.64,-231.84,103.67,-0.3616,0.468,0.3475
4.841,114.94,-143.64,168.07,-0.6939,0.6368,-0.3938
4.922,51.8,13.58,45.5,-0.9804,0.6202,-0.7388
5.047,-69.72,194.18,-201.46,-0.6251,1.0346,-0.5544
5.143,-172.06,207.41,-144.13,-0.4094,0.6071,-0.081
5.224,-240.17,174.23,-126.21,-0.3216,0.608,-0.4577
5.448,-209.79,81.76,-12.39,-0.2059,0.6666,-0.4465
5.525,-230.93,47.74,-41.51,-0.2913,0.8096,-0.162
5.685,-125.09,50.89,9.52,-0.7305,0.9179,0.4216
5.766,-99.68,54.6,-177.1,-1.2351,0.5309,0.4109
5.928,14.07,-60.13,123.9,-0.7047,-0.0259,0.8955
6.108,8.19,-45.22,68.32,-0.507,0.5168,0.8374
6.225,-22.75,13.79,-44.45,-0.3465,0.49,0.569
6.344,-26.6,18.27,-2.17,-0.4939,0.6281,0.6627
6.467,1.05,4.34,52.36,-0.7515,0.3626,0.6852
6.586,-1.82,25.83,20.72,-0.673,0.3821,0.608
6.703,-22.75,38.85,-20.16,-0.6866,0.4577,0.5461
6.737,-16.38,20.37,-7.63,-0.731,0.4699,0.5192
6.825,-10.08,15.26,-18.34,-0.7169,0.5041,0.5417
6.882,20.86,-8.68,28.0,-0.7305,0.5383,0.6256
6.969,6.58,-0.14,26.18,-0.6061,0.4089,0.6066
7.124,-11.06,16.94,-4.55,-0.3689,0.6178,0.692
7.202,-0.49,7.63,2.38,-0.3284,0.5954,0.6412
7.423,33.53,-26.04,2.59,-0.5412,0.6349,0.5109
7.518,16.59,-11.34,20.58,-0.6212,0.6329,0.5563
7.565,9.45,1.33,24.22,-0.4568,0.4802,0.5646
7.724,11.48,-0.28,-23.45,-0.1752,0.6812,0.5729
7.802,29.33,-23.38,-28.7,-0.3963,0.9243,0.6442
7.964,9.87,-50.61,-38.15,-0.6183,0.5939,0.3401
8.043,-39.48,-26.95,-62.02,-0.7657,0.6407,0.4006
8.202,-47.46,-38.57,-32.76,-0.6183,1.0756,0.7408
8.283,-2.24,-47.67,-81.06,-0.5144,0.59,0.8037
8.445,39.06,-18.06,-73.43,0.0654,0.4046,0.7418
8.523,31.64,-33.81,-23.1,0.1166,0.022,0.5183
8.745,30.52,27.44,103.6,-0.8882,-0.0927,0.7881
8.838,-30.52,13.65,-11.34,-0.2674,0.0512,0.5636
8.885,-24.15,-25.2,-28.84,-0.6666,0.2474,0.7154
9.003,44.31,-16.03,-59.15,-0.6539,0.4738,1.5016
9.123,58.03,-27.44,-39.62,-0.0278,-0.1732,0.669
9.221,9.94,-6.02,-65.03,-0.6969,0.0586,0.8603
9.369,102.69,26.32,-59.36,-0.7286,0.2474,0.7554
9.524,244.37,117.95,-133.35,-1.2644,1.0936,0.142
9.603,317.45,143.64,-143.99,-0.8794,1.1356,0.1157
9.765,428.12,-10.5,84.77,-0.9926,0.9809,0.4319
9.842,395.78,-103.67,194.6,-0.9287,0.5905,0.4426
10.002,216.37,-148.19,154.28,-0.6466,0.8203,-0.6661
10.149,72.45,-83.79,265.51,-0.2952,0.9604,-4.9371
10.306,-54.81,430.5,4.76,-2.3219,1.1165,-4.7565
10.383,-1430.9399,1033.62,-1165.29,-3.6078,-2.4068,9.7273
10.548,112.91,-86.03,318.43,-0.7218,3.1432,-3.4819
10.628,419.16,-19.6,385.49,-1.9622,-0.5065,-1.5201
10.782,389.48,13.86,165.48,-1.4708,0.9887,-0.0888
10.868,538.93,7.49,175.14,-1.0087,1.689,0.8672
11.023,771.12,-480.76,274.26,-0.4768,2.197,2.0091
11.108,541.66,-647.99,263.83,-1.4611,0.509,1.1273
11.329,-98.7,93.73,-185.78,-0.5714,0.4568,-1.6763
11.407,-153.58,255.92,-158.13,-1.405,1.5406,-1.0546
11.562,-233.52,581.56,-223.93,-1.2249,0.3914,0.0273
11.704,-586.6,53.9,-590.8,-0.7266,1.4401,0.5075
11.863,-170.45,-138.32,13.44,-0.8774,0.8774,-0.143
11.944,-61.04,-93.87,-24.29,-0.7998,0.3426,0.0254
12.105,54.39,-39.97,107.03,-0.5724,-0.0146,0.7276
12.248,28.21,-3.36,71.26,-0.5666,-0.1659,0.7183
12.404,-8.96,49.77,54.53,-0.7222,0.6066,1.1517
12.488,-50.61,55.44,19.11,-0.6105,0.2396,0.8891
12.703,-61.6,21.49,19.46,-0.4006,0.3333,0.591
12.789,-32.2,13.86,-7.28,-0.5124,0.326,0.5412
13.003,63.42,-15.96,-13.37,-1.0721,0.4094,0.8682
13.085,60.2,-20.16,-36.19,-0.7374,0.2645,0.6656
13.244,26.39,-19.95,-35.07,-0.4577,0.347,0.5451
13.326,30.38,-38.01,20.3,-0.3967,0.4441,0.6954
13.484,-0.84,-0.07,55.02,-0.4821,0.3797,0.8457
13.568,-16.45,30.87,28.35,-0.3806,0.4485,0.935
13.723,-15.82,4.9,10.57,-0.2484,0.5129,0.9135
13.805,-3.64,-11.55,-7.77,-0.4158,0.4953,0.7828
13.962,28.42,-4.55,-36.61,-0.7681,0.3738,0.5539
14.044,61.18,5.32,-94.43,-0.6695,0.3138,0.3123
14.202,66.99,-30.38,-70.35,-1.2732,0.2938,0.61
14.283,57.05,-4.27,-93.17,-2.0023,0.3279,0.9004
14.443,-27.51,-55.93,61.39,0.123,-0.3514,0.8628
14.528,-79.1,-81.62,60.27,-0.102,-0.2913,0.9628
14.746,-39.27,48.37,-18.48,-1.2161,0.6071,0.4831
14.824,102.97,51.66,-31.43,-0.2567,0.731,0.0639
14.985,94.5,0.07,-111.44,-0.6686,0.1557,0.6998
15.125,28.21,-28.07,-45.92,-0.53,0.3645,1.3854
15.287,-66.08,-52.15,26.32,-0.1049,-0.2606,0.7828
15.364,-112.14,1.47,-21.84,-1.0316,0.3841,0.8569
15.522,118.65,39.34,-107.17,-0.8857,-0.0571,-0.3323
15.607,178.36,153.44,-238.07,-2.0823,0.9867,0.0561
15.827,453.39,5.11,35.42,-0.2313,1.1497,0.9135
15.918,524.65,-238.56,343.63,-0.5065,1.5738,0.2933
16.065,235.83,-25.55,392.21,-2.3336,0.2074,-6.1293
16.202,-78.12,811.23,-75.46,-7.7665,-1.5704,3.0734
16.485,266.21,162.75,61.95,0.3762,2.7001,-1.4333
16.562,450.45,-149.8,688.87,-1.2185,-0.5514,-1.5621
16.682,313.67,-108.36,1.89,-1.5362,1.1361,0.2264
16.757,455.98,-12.88,81.76,-0.9091,1.5811,0.8179
16.804,554.82,-39.2,121.1,-0.3733,1.7363,1.1814
16.922,706.16,-285.88,244.72,-0.8208,2.155,1.097
16.982,658.42,-406.07,156.45,-0.8057,1.7539,0.6076
17.042,511.98,-471.94,309.96,-0.9989,0.588,0.2455
17.117,199.5,-337.68,77.77,-1.0233,0.2084,-0.51
17.207,-25.69,47.88,-113.4,-0.263,0.1405,-1.2878
17.287,-192.22,282.66,-125.72,-1.0721,0.3274,-0.61
17.507,-536.13,301.42,-311.78,-0.9218,0.7847,0.2972
17.583,-532.98,79.24,-248.71,-0.5017,1.0721,0.2664
17.743,-233.1,-127.82,-60.41,-0.7086,1.0824,-0.3187
17.838,-83.02,-116.06,80.99,-1.0756,0.5334,0.0615
17.886,-42.49,-83.23,118.23,-1.0546,0.1376,0.1908
18.107,6.02,-32.9,81.62,-0.6217,-0.2269,0.7222
18.185,-3.85,18.48,29.75,-0.7066,0.1967,0.7852
18.343,9.94,30.73,96.46,-0.6837,0.6681,0.9989
18.427,5.32,21.0,17.71,-0.5802,0.4846,0.7725
18.585,16.24,-4.48,-3.08,-0.4011,0.2499,0.4626
18.667,17.78,-4.83,-38.85,-0.7871,0.5436,0.5632
18.762,68.32,-15.47,-1.54,-0.8496,1.1009,0.8633
18.802,87.15,-35.77,7.07,-0.6232,0.7466,0.7032
18.84,84.35,-45.29,-27.65,-0.6207,0.5563,0.6451
19.004,-20.09,-27.79,48.65,-0.1381,0.4553,0.9023
19.124,-41.65,-20.86,166.25,-0.0869,0.9555,1.2385
19.244,-29.05,45.5,211.26,0.3445,0.2035,0.63
19.365,-36.68,14.98,77.56,-0.0054,0.5788,0.9179
19.484,-72.66,0.0,109.55,-0.0288,0.7998,1.1507
19.544,-63.07,12.32,83.93,0.1293,0.5275,0.8218
19.663,-51.73,5.18,111.37,0.2401,0.1874,1.0458
19.697,-64.33,21.0,80.22,0.4407,0.326,1.1273
19.845,-68.18,21.42,104.16,0.672,0.3382,1.3381
19.903,-65.73,55.51,156.38,0.4704,0.2957,1.1107
19.984,0.21,46.34,125.44,0.1118,0.3665,0.5466
20.145,108.29,15.05,124.6,-0.4392,0.2816,0.4294
20.222,125.3,-19.32,136.01,-0.4987,0.8364,0.6178
20.342,161.28,-104.93,71.19,-0.4836,1.1273,0.4675
20.465,138.32,-227.78,-324.17,-0.1103,3.9216,-2.2726
20.582,651.0,-29.47,-77.49,10.9576,8.6039,-15.3442
20.657,837.9,-770.84,348.18,4.0899,6.183,-0.5153
20.704,524.16,-1147.51,397.88,4.0299,3.9304,0.6071
20.762,-291.76,-1165.78,1165.08,-0.347,4.3696,1.6328
20.824,-860.3,-277.69,574.35,-1.6055,2.705,-0.1791
20.882,-593.39,-27.86,4.69,-1.0917,1.8046,-1.1107
20.944,-73.71,130.55,2.94,0.3279,0.5724,-1.3108
21.006,121.38,149.52,102.41,0.6373,-0.4309,-0.5714
21.063,73.85,122.43,-63.63,0.5661,-0.4943,-0.162
21.122,37.94,110.18,-45.92,0.2542,-0.1449,-0.0566
21.184,29.54,122.29,-112.63,0.1713,0.0981,-0.0839
21.246,40.46,136.64,-204.82,0.2352,0.3406,0.0278
21.302,90.58,169.68,-252.21,0.2211,1.0297,0.7862
21.364,188.65,232.96,-274.33,0.2503,1.6821,1.8524
21.426,270.34,277.62,-244.02,0.6217,1.8934,1.749
21.483,282.38,265.72,-177.59,0.3401,1.6529,1.3649
21.545,201.25,228.69,-109.76,0.1903,1.2742,1.0014
21.601,103.32,189.28,16.73,0.0034,1.0136,0.6954
21.662,12.53,198.73,21.7,-0.3626,1.3034,0.4724
21.724,-82.53,229.11,-1.47,-0.4094,1.6211,-0.0756
21.786,-158.13,237.86,14.14,-0.0693,1.3601,-0.2674
21.844,-217.35,217.49,16.17,0.0493,1.2278,-0.0293
21.91,-239.75,185.71,21.0,0.1615,0.9599,0.121
21.962,-234.64,161.28,37.59,0.1908,0.7666,0.2167
22.024,-214.76,131.88,34.79,0.1845,0.7178,0.2308
22.086,-180.81,107.24,47.6,-0.0322,0.7178,0.3314
22.142,-138.11,71.82,5.46,-0.4387,0.631,0.2821
22.202,-77.84,22.96,-61.6,-0.649,0.7974,0.3538
22.277,71.19,-18.06,-52.01,-0.7618,1.0404,0.8613
22.424,109.83,-48.65,-38.43,-0.0283,0.6427,0.7227
22.503,83.37,-38.29,-6.86,-0.0996,0.6944,0.6627
22.723,50.75,3.57,7.14,-0.2191,0.9399,0.5075
22.803,57.61,25.34,67.2,-0.2162,1.0482,0.4797
22.965,20.44,82.81,52.08,0.1606,0.8638,0.203
23.045,-9.1,99.96,17.57,0.1874,1.077,0.204
23.203,-50.75,94.43,23.8,0.0293,0.833,0.2323
23.343,-59.15,58.73,-137.55,-0.2913,0.9121,0.4504
23.507,-15.47,13.44,-28.0,-0.5788,0.9248,0.3152
23.642,-10.08,-12.39,-15.05,-0.4695,0.7198,0.3138
23.803,-4.62,-36.26,-1.82,-0.5724,1.0321,0.4265
23.883,-5.81,-34.37,-38.22,-0.6886,0.8106,0.3928
24.046,-10.92,-21.42,-24.08,-0.5929,1.0726,0.8623
24.122,-15.12,-5.95,-32.55,-0.4421,0.6783,0.753
24.245,-25.27,-12.46,-67.41,-0.0864,0.5309,0.5558
24.466,28.0,-11.06,-24.5,-0.5734,0.6978,0.4236
24.607,51.87,-9.59,-43.47,-0.7584,0.7823,0.6324
24.766,65.31,-45.99,-19.46,-0.4006,0.6222,0.5817
24.843,51.66,-43.68,-7.49,-0.4626,0.3118,0.3655
25.005,90.3,5.39,-136.78,-1.2263,1.1346,0.0874
25.083,167.09,39.9,-157.36,-1.0848,1.1863,0.4997
25.182,62.3,-114.38,-200.06,-1.4201,-0.2757,0.9711
25.22,22.4,-198.59,-250.53,-1.1668,0.3548,1.2615
25.267,40.18,-301.7,-193.83,-0.8218,0.9789,1.6289
25.423,9.87,-408.45,90.16,0.1947,1.0804,0.8823
25.504,42.28,-248.99,92.68,1.0268,1.2893,0.0342
25.664,776.44,562.31,-37.94,-6.366,6.5455,-1.0951
25.749,730.8,465.92,-430.36,-2.5488,2.825,0.0376
25.907,62.23,-15.96,26.25,-0.673,1.9457,0.814
25.988,-132.23,64.05,-50.89,-0.4846,1.5943,-0.3836
26.145,-124.67,140.91,-84.91,-0.0922,1.0346,-0.2342
26.222,-129.64,145.46,-104.02,0.3421,1.262,-0.4143
26.284,-106.82,122.29,-29.19,0.1991,1.4308,-0.0688
26.444,-117.6,101.71,90.37,-0.1498,0.6959,0.4143
26.52,-143.01,120.19,87.01,-0.2611,0.5266,0.6002
26.684,-182.14,127.75,20.09,-0.2616,0.4441,0.7027
26.807,-181.23,132.44,16.73,-0.2611,0.6769,1.1824
26.924,-132.23,46.41,70.21,-0.7222,0.3884,1.0297
27.104,-103.32,34.58,-46.06,-0.4187,0.0917,0.3601
27.286,75.6,-20.93,-39.13,-1.0028,0.55,1.1561
27.408,93.03,-21.56,-93.17,-0.5671,0.1879,0.7447
27.525,97.44,-12.74,-20.79,-0.263,0.0551,0.6822
27.647,65.52,-16.17,-70.7,-0.3963,0.3401,0.9589
27.764,11.55,-28.91,-8.05,-0.5261,0.6027,1.016
27.887,20.09,4.76,-30.03,-0.1991,0.344,0.7193
28.006,38.57,3.71,2.38,-0.466,0.4016,0.8603
28.124,14.07,3.08,-26.81,-0.5871,0.6027,0.8555
28.184,41.93,-7.21,6.02,-0.652,0.4651,0.673
28.247,50.75,-16.1,29.05,-0.9165,0.1786,0.489
28.304,33.6,3.71,67.41,-0.856,0.265,0.5148
28.364,3.57,31.43,20.79,-0.7149,0.4246,0.5929
28.427,-12.18,42.07,-11.06,-0.5841,0.5192,0.6037
28.485,-11.13,27.93,-2.52,-0.5797,0.5949,0.6056
28.548,-2.87,11.9,-6.16,-0.5988,0.5954,0.5793
28.606,11.9,-0.56,-5.6,-0.6422,0.5724,0.588
28.664,20.09,-4.55,-6.72,-0.5929,0.5075,0.5797
28.787,22.05,-6.23,5.18,-0.2967,0.467,0.7632
28.907,17.92,-19.74,66.99,-0.0137,0.6534,1.1478
29.086,-44.66,14.21,158.69,-0.0429,0.8769,0.5758
29.202,-15.12,52.15,133.42,0.0508,0.57,0.2826
29.22,-15.54,32.62,50.54,0.0908,0.6832,0.4577
29.236,-15.61,19.6,75.46,0.1645,0.8403,0.6378
29.283,-10.71,17.01,136.22,0.225,0.8389,1.138
29.382,-6.72,52.64,13.93,0.1835,0.7218,1.1131
29.423,-8.47,37.38,45.36,0.1893,0.5588,1.0155
29.478,-29.33,16.31,72.87,0.2411,0.2347,0.8086
29.623,-80.64,18.97,114.45,-0.0259,0.5607,1.1087
29.704,-68.81,27.65,91.63,0.1391,0.7076,1.0985
29.863,-17.71,56.21,155.89,0.5017,0.1376,0.8642
29.943,0.7,79.73,184.45,0.3475,0.2821,0.6827
30.165,103.32,40.95,202.65,-0.6456,0.5876,0.8472
30.284,109.2,55.65,130.69,-0.6759,1.2893,0.7427
30.408,78.89,-92.4,-104.93,-0.4709,3.1315,-0.5495
30.465,77.21,-296.31,-256.62,-0.3884,3.3052,-4.0255
30.584,18.06,-444.22,-547.12,5.4105,12.666,-1.9915
30.704,1022.91,-139.23,-53.55,1.6602,3.3892,-0.1815
30.83,674.94,-623.07,245.91,-1.4489,1.2019,-1.7651
30.945,256.34,-254.31,8.12,-0.2186,1.7114,-1.2078
31.065,294.7,-4.27,-71.82,0.0522,0.7081,-0.5754
31.185,4.55,300.44,-272.44,-0.4319,1.5045,-0.1762
31.304,-136.57,395.64,-248.36,-0.0508,1.7017,0.0068
31.424,-376.67,113.4,-111.65,-0.0429,1.0224,0.3128
31.544,-300.37,59.5,-3.43,-0.3889,0.5305,0.2211
31.667,-147.56,73.43,-44.59,-0.6383,0.7447,0.5202
31.782,-51.66,44.87,-139.23,-0.3367,0.5949,0.9067
31.799,56.0,6.93,34.93,-0.3348,0.5353,0.9326
31.904,19.81,-15.82,58.24,-0.3353,0.3318,0.7891
32.045,14.28,-0.21,22.26,-0.3948,0.4329,0.6769
32.209,17.15,31.57,0.14,-0.59,0.9565,0.7886
32.286,6.44,28.77,-10.99,-0.4753,0.815,0.5534
32.503,-20.58,9.17,18.06,-0.2699,0.6588,0.4919
32.584,-10.43,2.73,53.48,-0.3494,0.6549,0.4865
32.742,-9.38,25.83,41.79,-0.5729,0.8667,0.568
32.828,-3.29,37.24,33.18,-0.4377,0.8154,0.6154
32.986,-16.31,2.45,-17.57,-0.1557,0.5222,0.4763
33.065,5.46,-26.6,-38.64,-0.0986,0.509,0.2782
33.223,56.91,-76.65,-181.79,-1.2932,1.6416,0.5139
33.307,110.88,-88.06,32.62,-1.303,0.4792,0.8501
33.462,-33.11,-51.52,-34.44,-0.1615,0.0908,0.7501
33.545,-64.12,-27.09,21.28,-0.2674,0.8311,1.4947
33.703,-64.47,23.45,16.59,-0.2089,0.6578,0.6925
33.783,6.58,23.59,-4.97,-0.3626,0.4421,0.3528
33.951,-1.19,11.55,-87.43,-0.9145,0.5202,0.3382
34.023,94.15,24.43,-109.9,-1.1912,1.586,0.7867
34.183,168.91,58.87,-207.83,-1.0077,0.7842,0.164
34.263,231.63,59.15,-113.61,-0.9389,0.8789,0.1571
34.425,293.02,52.85,-71.61,-1.1658,0.6515,0.4441
34.505,413.07,-13.93,13.02,-0.4128,1.5035,0.673
34.602,461.44,-243.74,239.96,0.0229,1.3083,0.669
34.636,402.85,-280.91,293.86,-0.1327,1.0804,0.3719
34.683,295.33,-208.18,195.51,-0.388,1.2259,-0.611
34.842,11.55,1207.5,1.68,-10.1841,2.1804,-1.7202
34.99,-1710.45,-139.3,-1283.73,-3.5404,4.3569,10.8809
35.144,-144.06,-57.75,-164.71,-1.2644,0.8042,-0.5207
35.224,110.25,28.84,7.91,-0.2713,0.9638,-1.2507
35.402,167.16,-158.76,203.91,-1.0668,-0.1249,0.1259
35.464,180.18,-131.39,107.52,-1.2805,-0.4046,0.5012
35.623,165.34,-73.57,76.37,-1.181,-0.1928,1.0189
35.765,117.32,-62.79,34.09,-0.8218,-0.2884,0.7013
35.925,-73.99,-54.39,-22.68,-0.6383,-0.0771,1.0106
36.002,-86.45,-6.72,-51.24,-1.1336,0.3113,1.1697
36.125,-14.98,19.18,5.53,-0.7222,0.3889,0.7325
36.223,37.03,18.69,9.87,-0.4895,0.0659,0.4436
36.307,39.27,14.28,-4.83,-0.53,-0.0532,0.6242
36.465,70.49,-3.92,-54.95,-0.649,0.264,0.7823
36.547,93.45,-31.43,-40.32,-0.7481,0.1889,0.9228
36.704,100.31,-23.03,-35.42,-0.6549,0.1474,0.7745
36.785,63.35,-52.01,-55.09,-0.4421,0.0044,0.5773
36.947,40.67,-50.26,7.63,-0.6246,0.3963,1.2361
37.084,34.58,11.13,-5.04,-0.3074,0.5012,0.7779
37.243,8.61,9.87,-6.16,-0.2952,0.3152,0.833
37.338,-2.45,8.4,-21.07,-0.486,0.568,0.9731
37.483,34.79,-11.27,-2.31,-0.5431,0.5124,0.6988
37.564,60.13,-19.25,42.63,-0.8091,0.466,0.6442
37.783,-52.92,67.13,-27.51,-0.691,0.4948,0.6842
37.865,-42.77,43.33,-21.28,-0.4797,0.5607,0.6163
38.023,22.12,-24.01,29.12,-0.529,0.5231,0.7037
38.107,21.98,-32.62,18.13,-0.5876,0.4275,0.6895
38.265,9.24,-9.31,-12.46,-0.5641,0.4773,0.5895
38.342,16.31,-16.52,-27.86,-0.5056,0.5568,0.5646
38.504,58.38,-29.47,-9.73,-0.4997,0.6056,0.7525
38.646,20.09,-32.34,-26.74,-0.4743,0.4431,0.8301
38.803,-35.49,-16.38,-16.94,-0.3748,0.4943,0.8291
38.883,-30.66,1.89,-6.65,-0.4026,0.5456,0.8037
39.043,-9.8,10.36,16.73,-0.4197,0.5124,0.7359
39.123,-5.74,10.01,15.96,-0.4631,0.4856,0.7383
39.242,-0.49,10.71,16.52,-0.5026,0.467,0.7554
39.465,57.96,8.12,-98.42,-0.6598,0.4143,0.3572
39.545,167.79,42.35,5.39,-0.7276,0.753,0.4553
39.661,227.29,59.08,-47.74,-0.6617,0.9072,0.3582
39.723,206.22,45.78,-16.87,-0.6149,0.7335,-0.0249
39.883,191.59,-4.2,66.08,-0.5846,0.9594,-0.428
39.96,204.68,-9.31,70.21,-0.7637,0.9296,-0.3494
40.006,187.6,-10.43,29.82,-0.6529,0.7393,-0.4309
40.124,153.23,-17.64,34.3,-0.6627,0.6242,-0.4538
40.242,94.78,-19.53,41.37,-0.5978,0.5549,-0.5051
40.26,15.26,-6.72,22.05,-0.5695,0.5446,-0.5056
40.277,-12.53,-0.98,8.61,-0.5807,0.5568,-0.5139
40.325,-47.25,8.19,-10.71,-0.5778,0.5612,-0.5788
40.486,-136.43,16.94,19.95,-0.4943,0.6676,-0.7174
40.563,-170.66,5.18,6.93,-0.4412,0.8491,-0.6759
40.723,-170.17,11.34,33.18,-0.3626,0.9028,-0.3431
40.808,-156.52,27.44,41.23,-0.3006,0.8462,-0.1503
41.024,-122.64,89.46,-7.14,-0.4324,0.7086,0.3626
41.103,-74.55,65.24,-158.62,-1.0956,1.3278,-0.0664
41.262,-16.17,37.66,-46.2,-0.569,0.5783,0.4368
41.343,-7.49,12.46,16.87,-0.5266,0.611,0.5607
41.405,-13.86,-2.24,-6.65,-0.5812,0.61,0.629
41.563,-0.42,-29.61,6.51,-0.5773,0.672,0.5856
41.648,19.11,-26.11,-5.18,-0.5104,0.5905,0.4675
41.803,131.11,5.81,-382.62,-2.1282,1.2307,-0.7764
41.882,231.21,7.35,-426.79,-1.912,1.3113,-0.3733
42.043,654.85,-295.89,36.68,1.0995,2.4951,0.3699
42.125,582.4,-456.68,51.31,-0.2074,0.6066,1.464
42.283,173.39,-369.74,115.15,0.162,0.4172,-2.2165
42.372,27.79,43.89,-30.1,-1.9549,1.3757,-5.41
42.523,167.65,1520.05,-321.51,-7.8734,2.7704,2.4927
42.605,-1339.3101,803.74,-1010.8,0.9428,3.9074,1.7187
42.763,-429.17,-140.98,239.61,-0.8218,3.1754,-1.1658
42.846,-309.54,-103.11,154.21,-1.6158,1.3518,-0.9599
43.008,-10.15,-97.37,80.22,-2.195,0.6993,-0.5963
43.242,245.0,-86.17,-127.4,-0.3357,0.2625,0.8013
43.32,198.87,-35.7,-159.11,-0.285,0.2269,0.5051
43.366,177.45,-39.27,-161.49,-0.2728,0.6027,0.6061
43.486,161.42,-90.51,-120.68,-0.245,1.3132,1.2395
43.607,179.27,-151.55,-142.1,-0.0224,0.5661,1.2483
43.73,129.43,-112.91,-78.12,-0.3479,0.326,0.832
43.902,75.88,-46.34,-74.48,-0.4465,0.4904,0.9238
43.921,61.74,-29.4,44.59,-0.5422,0.4368,0.8794
43.939,44.03,-22.33,40.46,-0.6339,0.3714,0.8686
43.983,16.87,5.88,34.51,-0.7935,0.1825,0.8584
44.143,-42.98,21.49,28.21,-0.5241,0.5007,0.6217
44.225,-35.98,22.12,5.74,-0.528,0.8159,0.7022
44.388,-2.87,29.54,60.2,-0.2479,0.6378,0.8735
44.467,-8.47,39.83,74.06,0.0356,0.1479,0.8242
44.684,-82.81,84.28,165.34,0.5129,1.0819,1.1619
44.766,-27.79,137.55,83.93,-0.3948,2.035,1.5416
44.923,-23.24,-18.9,15.82,-0.1581,0.425,0.2991
45.222,-20.65,128.1,175.0,1.6211,0.713,0.9828
45.304,-86.45,102.2,269.29,0.6359,2.2019,1.0887
45.466,-54.81,-38.15,4.76,0.0634,0.9213,0.2757
45.604,-13.93,-121.17,-113.54,-0.0346,0.2533,1.0087
45.765,72.45,27.3,125.79,1.6763,0.0366,0.408
45.843,109.62,102.41,314.3,1.2434,0.8237,0.4724
46.005,185.85,136.92,230.93,-1.6865,0.8882,0.8691
46.247,75.95,-751.66,-467.88,0.6998,2.4376,-4.7302
46.425,365.12,-631.33,95.55,-0.4348,0.5134,-0.2538
46.568,-133.0,-131.95,-9.17,0.5466,-0.3811,-0.2767
46.722,-28.07,312.76,-603.82,-0.4904,4.0558,0.8369
46.8,64.47,298.27,124.18,-0.4124,1.1605,0.0205
46.904,-9.31,118.02,-181.3,0.2679,0.8999,0.6983
47.028,25.34,76.65,79.1,-0.9931,1.567,-0.4851
47.209,66.22,66.57,48.37,-0.5129,0.304,0.5192
47.325,-213.15,93.38,25.06,-0.222,0.205,-0.5168
47.565,-313.11,-56.14,-118.02,-0.57,0.6412,0.976
47.685,-44.24,-11.76,-107.38,-0.1157,0.2743,0.6339
47.805,-47.74,-17.08,-107.31,-0.1401,0.672,0.914
47.924,-40.95,-3.92,12.67,-0.4699,0.7535,1.0346
48.044,11.48,22.61,69.37,-0.6041,0.2406,0.8784
48.166,9.52,62.72,-26.25,-0.2869,0.1235,0.754
48.284,-14.28,50.33,-8.4,-0.5046,0.4358,0.5856
48.406,25.62,-8.12,-41.93,-0.9223,0.8862,0.7174
48.524,98.07,-9.24,-55.72,-0.5949,0.6315,0.6534
48.644,99.19,-54.46,-40.18,-0.4041,0.184,0.4812
48.767,46.48,-47.53,-14.28,-0.2577,0.4729,0.5944
48.886,-14.77,-12.95,37.94,-0.4797,1.016,0.8618
49.005,-39.69,22.75,70.56,-0.3645,0.7598,0.5739
49.125,-10.99,110.32,55.58,-0.284,0.3509,0.2386
49.25,-13.79,81.27,31.08,-0.5963,0.6564,0.0112
49.364,54.74,-20.79,-70.21,-0.7886,1.6309,0.67
49.486,79.94,-87.92,-116.62,-0.1279,-0.1601,0.7471
49.605,-88.76,-51.1,-2.73,-0.5378,0.3084,0.754
49.723,-61.04,22.75,-70.28,-0.7462,0.6939,0.001
49.845,-2.17,69.79,-96.04,-1.4772,1.7988,-0.4743
49.967,119.14,121.45,-80.01,-1.0555,2.9265,-0.9311
50.085,574.42,-45.85,230.3,-0.6695,2.0872,-0.6925
50.203,532.14,-252.63,198.03,-1.1351,0.8111,0.1078
50.325,328.93,-160.23,173.74,0.7462,1.6543,-0.5768
50.506,201.81,-328.51,154.56,-6.9711,1.8339,-2.298
50.565,-7.63,1028.16,217.91,-7.7128,-0.2411,3.4604
50.684,320.46,1054.97,1583.12,-5.9712,5.2543,9.3955
50.805,-574.14,24.43,45.08,1.1966,1.221,-2.8158
50.982,5.88,68.74,83.72,-2.7177,0.6261,-0.5519
50.999,287.98,59.64,178.01,-2.2702,0.7413,-0.3328
51.016,380.94,145.32,168.49,-1.8954,0.913,-0.0434
51.063,528.15,126.07,336.56,-0.9301,1.6802,0.4821
51.222,380.94,-509.39,473.06,-0.8916,1.5504,-0.875
51.308,174.58,-367.36,142.66,-0.4031,3.5043,-0.8198
51.464,110.25,-50.47,-297.71,1.0438,0.4265,-0.3113
51.543,16.8,57.82,-54.81,0.3655,0.5007,-0.0771
51.705,-151.76,238.14,-136.43,-0.815,1.4123,-2.747
51.788,-246.05,257.32,-131.18,-1.241,0.6134,-1.5621
51.945,-381.08,90.86,-243.46,-0.0898,0.8906,0.0717
52.026,-290.01,28.56,-29.68,-0.3274,0.6285,0.0005
52.242,-41.79,80.5,-79.45,-0.6847,0.547,0.6295
52.319,-12.81,67.06,-3.78,-0.6705,0.5592,0.6915
52.367,-13.09,57.12,45.15,-0.6154,0.2694,0.3811
52.484,-16.66,33.25,-10.71,-0.5417,0.4065,0.2445
52.605,14.91,-18.83,21.63,-0.9575,0.7896,0.3348
52.725,110.81,-48.72,10.08,-0.7798,0.9448,0.5061
52.849,96.74,-50.96,-26.46,-0.2747,0.4329,0.3816
52.962,26.11,-78.89,11.48,-0.427,0.4407,0.5978
52.996,-9.31,-61.32,-11.27,-0.5236,0.547,0.671
53.026,-30.52,-46.83,21.42,-0.67,0.7159,0.774
53.088,-83.44,6.16,64.96,-0.609,1.1248,0.6276
53.165,-89.81,68.04,18.41,-0.5661,0.5568,0.6403
53.327,-170.31,214.27,74.55,0.1308,0.1381,1.1785
53.404,-165.83,189.63,-12.32,-0.1718,0.7676,0.5954
53.566,28.42,0.07,74.2,-0.3948,1.5211,0.6915
53.688,191.8,-176.33,-43.12,-0.8945,0.6827,1.2459
53.808,133.14,-124.39,-132.93,0.1752,0.2416,0.814
53.921,59.29,-159.11,-65.52,-0.1713,-0.3553,1.5884
53.942,-2.31,-100.87,47.25,0.0795,-0.9677,1.5304
53.959,-51.8,-58.87,15.19,-0.0615,-1.4118,1.5665
54.004,-115.08,-20.16,-27.09,-0.2552,-0.7652,1.6343
54.182,-53.55,106.19,-53.55,-0.5388,1.5845,-0.0122
54.287,14.42,72.66,161.35,-0.3245,-0.0215,-0.5651
54.363,-35.28,48.51,-50.75,-0.1386,-0.0473,-0.3182
54.524,123.9,37.31,30.52,-2.5044,1.4806,0.9526
54.606,152.32,72.66,-9.94,-0.9941,0.2655,0.8623
54.828,-33.25,-23.24,-51.17,-0.5597,-0.1098,0.5168
54.907,-46.41,5.18,-59.08,-2.1701,1.5352,0.7935
55.066,21.91,6.16,97.37,-0.446,0.4924,-0.2977
55.143,6.3,-1.89,136.85,-0.4299,0.0683,-0.0991
55.302,38.99,-10.64,-100.03,-1.4298,1.9808,0.2513
55.383,158.13,20.23,84.28,-1.2034,0.4197,-0.1074
55.545,142.03,-9.94,67.34,-0.4597,0.4558,0.5422
55.627,110.39,-57.54,139.72,-0.3938,0.0669,0.4016
55.845,175.63,31.08,69.02,-0.7335,1.2815,-0.6388
55.986,103.53,27.58,62.16,-0.285,-0.4041,-0.3235
56.142,-45.29,-19.25,-77.84,-0.1005,0.8276,-1.503
56.223,5.88,-68.04,16.17,-0.5451,0.8452,-1.0385
56.384,-40.39,-69.65,53.62,-0.303,0.3733,-0.2948
56.463,-23.8,-66.64,39.55,-0.6271,0.5348,-0.2782
56.625,95.9,-24.22,39.97,-0.7647,0.9989,-0.6105
56.702,108.08,-7.14,-34.09,-0.547,0.8564,-0.9623
56.867,30.73,-36.12,91.07,-0.3543,0.0952,-0.5095
56.944,-13.79,-32.2,61.25,-0.326,0.4099,-0.835
57.104,15.89,-43.33,16.1,-0.4172,0.6554,-0.9345
57.185,51.94,-33.81,57.4,-0.3802,0.6568,-0.5998
57.349,68.39,-67.9,102.48,-0.3274,0.5466,-0.4094
57.427,100.24,-56.35,92.75,-0.5485,0.7676,-0.2591
57.585,142.73,8.61,-19.53,-0.9218,1.017,-1.0507
57.663,89.81,32.41,-94.01,-0.7403,0.3743,-1.1483
57.824,-163.31,-16.45,-134.96,-0.2128,0.2035,-0.5763
57.902,-165.97,-37.59,-134.12,-0.3465,0.5217,-0.608
58.067,-54.88,-46.55,19.18,-0.2679,0.5446,-1.0048
58.144,-32.34,-28.49,105.42,-0.4973,0.4621,-0.8081
58.305,-12.53,31.64,3.15,-0.4348,0.345,-0.4407
58.383,-8.26,45.71,-33.32,-0.3938,0.4377,-0.3684
58.666,42.14,62.86,-17.08,-0.6681,0.7286,-0.8804
58.802,7.35,41.86,-138.04,-0.225,0.5392,-0.6041
58.864,-13.93,19.74,-100.38,-0.2401,0.3245,-0.4768
58.926,-34.51,-9.52,-36.12,-0.1464,0.2962,-0.6656
58.983,-48.37,-43.89,11.06,0.0146,0.1991,-0.8369
59.041,-50.47,-82.74,44.45,0.0634,0.5324,-1.1019
59.103,-26.39,-105.35,68.88,-0.3226,0.7203,-0.9345
59.162,5.74,-99.61,74.97,-0.508,0.814,-0.7574
59.223,30.8,-90.16,66.57,-0.6056,0.6193,-0.814
59.282,41.09,-82.81,88.69,-0.486,0.507,-0.4826
59.347,52.92,-77.49,104.3,-0.406,0.4714,-0.1913
59.405,62.72,-74.13,125.51,-0.3387,0.4431,-0.1908
59.462,73.78,-72.94,117.95,-0.303,0.5793,-0.181
59.524,95.9,-63.77,91.63,-0.5314,0.8233,-0.3343
59.586,139.02,-32.83,46.55,-0.9745,1.4118,-0.9126
59.644,173.18,-12.39,-24.5,-0.588,1.16,-1.0531
59.702,146.02,-8.12,-9.59,-0.6237,0.3182,-1.036
59.766,65.73,-12.46,54.04,-0.5022,0.0083,-0.5871
59.822,-1.33,-7.56,-6.09,-0.3406,0.1352,-0.4109
59.897,-65.1,-7.28,-68.81,-0.2054,0.1898,-0.5256
59.945,-84.77,-21.35,-52.36,-0.0942,0.2435,-0.6349
60.007,-91.49,-46.27,-10.92,-0.1698,0.3192,-0.7139
60.064,-86.52,-56.35,-6.93,-0.3597,0.4299,-0.5539
60.122,-77.7,-73.57,-65.45,-0.2255,0.4241,-0.4592
60.184,-60.55,-85.19,-73.5,-0.6232,0.5602,-0.2874
60.243,-37.66,-78.33,-37.38,-0.4719,0.2582,-0.3845
60.305,-36.12,-74.69,10.36,-0.6559,0.3353,-0.6481
60.367,-40.32,-75.25,-5.39,-0.9355,0.4573,-0.3333
60.425,-37.03,-75.18,-16.66,-0.9052,0.5144,-0.3631
60.487,-42.91,-79.94,35.35,-1.1048,0.3987,-0.1503
60.542,-53.9,-58.94,19.25,-1.5123,0.6271,-0.083
60.604,-53.62,-45.29,-3.08,-1.3108,0.6588,-0.0434
60.666,-46.83,-31.5,28.56,-1.2039,0.4943,0.1508
60.727,-39.9,-14.21,-10.57,-1.0243,0.7022,0.0942
60.782,-23.73,-14.35,-19.74,-0.8838,0.6656,0.1088
