timestamp,gyrox,gyroy,gyroz,accelx,accely,accelz
2.399,2.31,-1.61,-0.21,-0.996,0.0425,0.1069
2.567,2.31,-1.61,-0.21,-0.9989,0.0429,0.1069
2.645,2.1,-1.61,-0.14,-0.996,0.0429,0.1059
2.867,2.17,-1.61,-0.21,-0.995,0.041,0.1069
2.944,2.24,-1.61,-0.21,-0.9965,0.041,0.1049
3.105,2.24,-1.47,-0.14,-0.9975,0.0425,0.1064
3.187,2.1,-1.68,-0.14,-0.997,0.042,0.1069
3.405,-10.64,18.41,4.34,-1.8066,-0.6593,0.3338
3.491,-28.84,40.67,-1.61,-2.5117,0.2679,0.1845
3.601,-11.76,-4.13,27.23,-1.0336,-0.02,0.0293
3.706,-11.27,-3.29,-7.77,-1.462,-0.0239,0.2718
3.826,-29.26,-6.93,-32.9,-0.9658,0.0239,0.1645
3.946,-31.01,-46.76,-5.67,-1.2205,0.1015,0.4338
4.067,-26.39,-52.08,19.04,-1.3152,-0.0771,0.3738
4.183,-29.12,-9.59,2.59,-1.1336,-0.1874,0.2435
4.221,-34.16,8.82,3.15,-1.0951,-0.1039,0.2015
4.25,-32.34,10.85,1.33,-1.2503,0.2098,0.2133
4.303,-19.81,28.7,33.32,-1.0687,-0.205,0.2352
4.382,-38.15,33.53,40.18,-0.7891,-0.0986,0.0249
4.428,-17.22,47.95,114.87,-1.2517,0.4802,-0.0039
4.545,11.9,35.56,161.0,-0.5144,-0.1244,0.2377
4.669,-4.13,5.67,-65.17,-0.9823,0.0942,0.0903
4.85,-19.18,-24.85,-28.84,-0.9296,0.1859,0.143
4.905,9.8,0.7,-7.0,-0.7862,0.0273,0.0673
4.965,19.67,-0.14,-29.75,-0.9057,0.0771,0.1781
5.028,31.85,9.38,-21.98,-0.8067,-0.0283,0.1898
5.086,41.93,10.15,8.82,-0.7998,0.0112,0.1884
5.145,50.68,12.67,28.07,-0.7427,-0.0712,0.1596
5.205,53.55,7.49,43.47,-0.8062,-0.0346,0.1874
5.265,53.34,-2.38,28.56,-0.5895,-0.1947,0.1688
5.325,45.15,-9.59,4.69,-0.9414,-0.041,0.1962
5.385,39.69,-15.68,-28.0,-0.977,0.0766,0.1069
5.445,49.49,-4.97,-35.42,-1.0804,0.0429,0.0425
5.505,58.45,-0.42,-20.58,-1.1141,0.1322,0.0947
5.565,69.65,-0.84,-18.27,-1.1366,0.2025,0.1484
5.625,89.04,0.14,23.59,-0.7764,0.0078,0.0761
5.746,85.82,-26.53,-12.04,-1.0985,-0.4231,0.202
5.869,67.06,-25.48,-39.27,-1.1341,-0.0229,0.2611
5.99,47.53,-9.38,13.72,-1.2678,-0.0952,0.205
6.106,18.34,-3.29,-3.71,-1.0819,0.1362,0.1864
6.227,36.26,2.1,-11.06,-0.9306,0.1566,0.2094
6.407,57.68,9.94,12.67,-0.9496,-0.1152,0.2298
6.526,36.33,-5.32,-35.98,-1.1673,0.0981,0.2079
6.65,51.03,-4.76,-3.92,-1.0843,0.0966,0.2367
6.824,61.11,8.96,3.36,-0.651,-0.122,0.0371
6.863,50.96,5.88,-1.61,-0.7515,-0.1327,0.0903
6.884,42.14,2.8,-30.17,-0.7828,-0.1581,0.12
7.005,32.97,-0.98,-22.61,-1.0277,-0.1342,0.2689
7.187,11.83,-31.01,1.26,-1.1614,-0.062,0.2762
7.311,3.15,-25.55,2.87,-0.8774,0.0908,0.163
7.488,19.39,17.43,8.82,-0.9687,0.002,0.1713
7.604,12.74,24.64,-28.77,-0.9877,0.0576,0.0717
7.638,29.4,19.39,1.82,-1.0985,-0.0669,0.1581
7.665,23.66,5.6,-20.86,-1.2517,-0.2479,0.2435
7.748,23.94,1.82,-13.23,-1.0297,-0.0883,0.1474
7.905,28.91,-3.57,1.47,-0.6705,-0.1625,0.04
7.983,21.49,-3.36,-18.2,-0.7915,-0.1615,0.1669
8.086,7.21,-7.07,0.77,-0.9335,-0.1313,0.2015
8.206,-6.02,-16.66,9.31,-1.5079,0.1327,0.1635
8.326,-7.56,0.35,10.01,-1.0887,-0.0005,0.0898
8.446,-20.02,-0.49,-32.27,-0.7237,0.0566,0.102
8.563,-6.65,-3.08,25.2,-0.9428,0.0371,0.2001
8.583,-5.53,-7.21,-14.42,-1.0087,0.0303,0.1918
8.604,1.54,-2.59,-9.52,-1.1078,0.0259,0.1928
8.659,11.97,7.7,-8.54,-1.2693,0.019,0.1274
8.805,13.58,13.3,-17.22,-1.0214,-0.062,0.0264
8.949,27.72,7.35,48.51,-0.71,-0.0859,0.0312
9.061,-3.29,-18.48,-36.12,-0.834,-0.2464,0.0459
9.167,-10.85,-19.04,-26.46,-1.0692,-0.1254,0.2103
9.29,-14.91,-20.44,6.65,-1.3654,0.0669,0.1708
9.41,-7.63,-2.73,13.16,-0.9526,0.0332,0.0532
9.531,-1.75,4.48,5.53,-0.7598,0.0444,0.0322
9.646,1.33,-7.35,-3.71,-0.9921,0.0176,0.1157
9.766,9.94,-7.7,27.16,-1.2185,0.0747,0.1703
9.886,25.69,12.88,4.06,-1.1346,-0.0893,0.021
10.009,25.9,6.37,7.98,-0.7969,-0.1044,0.1039
10.127,23.38,-2.8,-7.28,-0.874,-0.1459,0.1596
10.306,27.79,-2.52,-17.71,-1.4113,0.0327,0.0976
10.427,21.28,-2.73,-32.97,-1.2078,0.2308,0.039
10.551,25.76,12.74,10.22,-0.7052,0.0488,0.103
10.666,49.14,-28.77,27.44,-0.8896,0.1,0.2503
10.786,62.3,-30.52,9.03,-1.1614,-0.0234,0.2235
10.905,51.66,-23.1,-23.52,-1.1893,0.0478,0.2406
11.029,47.95,-14.63,-20.02,-0.8525,-0.0786,0.1537
11.145,26.95,8.4,-35.56,-0.733,-0.0547,0.163
11.207,21.35,15.68,-24.43,-0.7652,-0.0893,0.1967
11.267,16.87,9.03,-8.89,-0.9862,-0.0761,0.2816
11.446,11.62,5.11,3.15,-1.1326,-0.0122,0.2069
11.571,-15.61,-11.76,-17.85,-1.0521,0.0293,0.1513
11.811,-11.27,5.95,-7.42,-1.0721,0.0127,0.1679
11.923,20.86,1.05,-1.82,-1.2342,0.0264,0.1552
11.961,19.6,0.98,-19.18,-1.1458,0.0903,0.2113
11.991,26.39,11.69,-10.85,-0.9233,-0.0317,0.0786
12.045,31.43,6.72,17.5,-1.0692,-0.1591,0.08
12.126,31.36,10.43,-13.23,-0.8701,-0.0517,0.0654
12.29,13.58,-2.17,-12.25,-0.7213,-0.1737,0.0917
12.364,-1.33,-13.3,-1.61,-1.0795,-0.1298,0.1874
12.525,11.48,-14.84,24.5,-1.1058,0.1215,0.0942
12.664,20.51,-6.86,-11.55,-1.0287,0.0854,-0.0098
12.884,47.46,6.23,27.58,-0.9848,0.0576,0.1225
12.966,47.46,8.26,1.68,-1.1131,0.0732,0.1786
13.067,49.07,3.5,-4.55,-0.9823,0.0698,0.1484
13.141,45.43,-4.69,-18.06,-1.0287,0.063,0.1196
13.186,50.05,-1.54,-34.93,-1.1805,0.1649,0.1405
13.307,60.9,-0.14,-6.44,-0.9038,-0.1108,0.0747
13.427,55.3,-11.41,19.74,-0.9189,0.0849,0.0298
13.546,62.65,14.07,27.02,-1.0028,0.0893,0.1391
13.606,69.51,-29.33,53.41,-0.9228,-0.0996,0.0703
13.667,68.04,-57.68,21.35,-1.1561,-0.124,0.0732
13.787,56.77,-31.78,-46.83,-0.9701,0.0083,-0.0283
13.972,80.99,31.01,5.39,-0.9096,0.1591,-0.0224
14.09,78.26,8.26,22.75,-0.9853,0.1898,-0.0869
14.207,68.04,2.31,17.64,-0.9565,0.2474,-0.0449
14.387,71.26,10.85,16.45,-0.9399,0.3748,-0.1371
14.506,84.14,33.11,28.63,-0.8716,0.2762,-0.2406
14.624,82.25,24.99,34.3,-0.9282,0.5109,-0.3567
14.658,101.64,23.17,20.23,-0.9736,0.529,-0.3806
14.686,123.27,30.17,46.13,-0.9936,0.49,-0.3767
14.767,126.0,24.08,76.3,-0.9784,0.2982,-0.3841
14.927,74.48,6.3,26.88,-0.8672,0.2674,-0.4929
15.003,64.4,13.02,40.32,-0.9013,0.2586,-0.4324
15.226,43.82,19.32,23.38,-0.8979,0.1601,-0.5505
15.304,35.14,23.94,-10.43,-0.7388,0.2152,-0.6978
15.469,-1.4,-0.63,-7.98,-0.7388,0.1025,-0.7144
15.545,1.68,-7.07,-12.53,-0.4241,-0.0415,-0.7564
15.709,-26.6,3.29,16.38,-0.4914,-0.2679,-0.3279
15.784,26.11,68.74,35.98,0.3748,0.5602,-0.9614
15.946,41.3,45.5,86.87,-1.0609,0.225,-1.1063
16.023,54.81,91.07,80.22,-0.6461,-0.0049,-0.4553
16.066,27.58,47.53,59.64,-0.0361,-0.0288,-0.9306
16.189,-16.66,-11.13,-3.64,-0.3562,0.3523,-0.9013
16.306,-27.93,-33.6,-20.16,0.9433,0.0512,-2.0315
16.429,14.63,7.84,-0.49,-0.2733,0.1132,-0.7886
16.549,28.84,-18.9,30.03,-0.3836,0.1947,-1.0921
16.666,17.99,-22.26,14.49,-0.2094,0.3172,-0.9335
16.783,24.99,10.57,-24.36,-0.2972,0.3187,-0.998
16.8,3.15,-35.63,41.79,-0.3167,0.3211,-0.9326
16.817,-5.39,-36.19,-1.47,-0.4104,0.2098,-0.8735
16.864,-19.53,-23.31,-30.31,-0.4812,0.1484,-0.8725
17.026,-59.15,16.38,-65.94,-1.1297,0.5339,-0.3065
17.105,-0.91,20.23,101.29,0.3182,0.3665,-0.9048
17.263,-46.13,-34.93,276.57,-0.4846,0.6544,-0.8096
17.343,-56.07,8.54,322.07,-0.2386,0.6944,-0.8882
17.386,-59.43,20.23,275.17,0.1469,0.7037,-0.8481
17.449,-59.36,24.71,250.95,0.0986,0.3553,-0.9179
17.687,-77.0,56.56,-45.15,0.1801,0.7422,-0.6359
17.866,-0.49,7.56,-113.89,0.0034,0.8979,-0.6349
17.987,114.38,-23.1,-65.94,-0.2323,0.7945,-0.6227
18.112,120.54,-25.76,-58.45,-0.2908,0.6608,-0.8008
18.226,72.94,-25.9,-52.15,-0.3558,0.6046,-0.7881
18.35,40.39,-7.84,-57.05,-0.4246,0.1035,-0.673
18.367,-32.48,23.38,-39.34,-0.385,0.1283,-0.693
18.463,-82.32,3.78,-83.65,-0.1191,0.1713,-1.1546
18.544,-114.8,-18.97,-47.18,-0.3592,0.3738,-0.7554
18.703,-150.92,-49.84,-6.86,-0.4651,0.5685,-0.6886
18.786,-148.33,-36.75,4.27,-0.5148,0.6944,-0.5007
18.849,-146.44,-26.25,-3.29,-0.5124,0.7515,-0.4592
19.003,-129.85,10.5,37.31,-0.5139,0.9716,-0.1771
19.088,-72.38,34.02,57.68,-0.5924,0.8711,-0.0176
19.261,12.88,11.06,17.85,-1.3571,0.8696,0.4543
19.369,10.99,8.26,-12.67,-0.4421,0.9199,0.1532
19.486,4.76,12.88,23.24,-0.4299,0.7867,0.1649
19.546,6.16,1.19,31.71,-0.4085,0.9067,0.1039
19.666,0.98,8.89,5.25,-0.4675,0.8823,0.0937
19.786,5.95,18.69,-27.3,-1.5221,0.6681,-0.3806
19.97,87.78,152.25,-404.67,-1.9388,0.7369,-0.8198
20.147,137.55,149.59,-330.82,-0.9736,0.1767,-0.3816
20.267,262.08,-10.92,-247.24,-0.1845,0.2196,0.1576
20.387,282.94,-64.61,-137.83,0.4768,-0.0791,0.5436
20.503,325.08,-152.11,-61.04,1.281,0.5046,1.0721
20.521,410.83,-299.25,37.03,1.384,0.5924,1.0268
20.538,413.7,-353.78,64.33,1.4362,0.6612,0.9545
20.585,413.28,-388.71,40.11,1.5679,0.5348,0.488
20.746,524.3,133.56,-159.39,-3.639,2.2716,-6.1244
20.824,736.05,1604.4,-110.46,-10.5593,6.1634,6.1083
20.941,-177.73,511.35,-20.93,-3.5673,2.4258,0.4226
21.049,-131.46,293.72,114.31,-3.0251,0.4192,0.2777
21.227,-153.79,-52.71,112.84,-1.2381,0.5675,-0.5119
21.35,-137.76,-88.2,61.04,-0.7828,0.3719,0.0093
21.586,-76.58,0.21,-97.3,-0.9287,0.7183,-0.1298
21.706,25.97,72.24,-119.42,-0.7549,0.1874,-0.2621
21.826,108.43,108.22,-14.21,-0.4089,0.6232,-0.7388
21.95,160.3,77.98,17.85,-1.1785,1.2776,-0.263
22.127,437.43,-24.71,342.65,-0.9531,0.995,0.1332
22.246,424.9,-312.27,313.74,-0.9721,0.6915,-0.1205
22.363,243.04,-235.83,62.93,-0.9623,0.5666,-0.4587
22.4,226.38,-144.83,91.56,-0.8457,0.3738,-0.5431
22.431,209.23,-88.9,107.45,-0.7818,0.3333,-0.5241
22.486,150.99,42.42,11.62,-0.693,0.3943,-0.488
22.569,83.09,157.36,-81.2,-0.8028,0.4856,-0.5724
22.727,-158.48,306.25,-281.75,-0.8638,0.2586,-0.5407
22.804,-374.29,225.54,-428.26,-0.6612,0.3606,-0.3504
22.967,-355.39,-69.02,-256.69,-1.1951,1.1009,0.081
23.105,-103.95,-7.98,64.05,-0.7198,0.7749,-0.0883
23.269,-379.47,-208.95,-258.02,-1.7832,0.3289,2.0862
23.404,-136.22,-115.71,-99.75,-0.5998,0.0176,-0.0586
23.564,159.6,291.55,137.48,-0.8877,3.1622,-3.4482
23.658,216.3,590.31,289.59,-0.1147,0.2869,-0.8618
23.807,504.98,-66.5,494.76,-1.85,1.6831,0.2782
23.882,343.91,-240.73,231.28,-1.4684,1.1112,-0.2084
23.99,201.81,-153.72,95.06,-0.4548,0.8408,-0.1484
24.107,193.41,-88.2,135.45,-0.7569,0.8745,-0.4587
24.226,212.94,1.75,175.91,-0.9399,0.4109,-0.3733
24.352,43.61,149.59,-68.46,-0.9331,0.6934,-0.0908
24.468,-147.84,182.42,-103.18,-1.1234,0.8623,-0.2167
24.591,-394.38,101.08,-155.89,-0.1962,1.2278,-0.2538
24.706,-367.36,-0.91,-45.36,-0.2913,0.9296,-0.1576
24.83,-139.44,39.2,-23.66,-0.6168,0.9697,-0.1157
24.847,-58.8,59.43,15.68,-0.6398,1.0087,-0.0717
24.904,-32.97,69.51,-11.41,-0.6944,0.977,0.04
25.069,19.18,-8.26,27.37,-0.5441,0.5705,0.2708
25.145,6.72,1.05,5.53,-0.6202,0.5597,0.2821
25.323,21.49,-8.05,24.92,-0.4856,0.9867,0.2128
25.381,18.13,-8.4,26.67,-0.6647,0.8481,0.2508
25.487,12.6,1.33,5.11,-0.795,0.6661,0.0634
25.607,12.25,21.0,-9.94,-1.5762,0.5475,-0.4226
25.733,54.95,177.03,-380.94,-1.8451,0.5192,-0.67
25.786,77.56,210.42,-273.0,-2.0335,0.2791,-0.771
25.903,84.91,196.28,-312.2,-1.3171,0.2577,-0.5856
25.921,176.96,100.59,-242.27,-1.1522,0.1947,-0.4729
25.942,213.57,65.38,-225.82,-1.0199,0.0503,-0.4255
25.989,239.05,28.28,-247.24,-0.5832,0.1757,-0.2372
26.144,330.96,-94.64,-114.45,0.5197,0.4207,0.6002
26.222,407.82,-193.48,4.76,0.7793,0.5022,1.3249
26.324,415.03,-368.55,91.21,1.1292,0.1039,1.4528
26.389,387.1,-430.43,76.86,1.5821,0.4514,0.8003
26.469,423.5,-351.54,-21.28,1.0472,1.6738,-2.7474
26.584,582.19,1296.1899,-339.08,-12.7944,6.993,4.4911
26.646,195.16,765.45,61.11,8.9333,-6.4479,0.8667
26.806,87.92,280.0,62.93,-4.5662,1.7509,0.1776
26.885,-25.62,248.08,36.4,-1.971,0.5319,-1.2166
27.044,-284.55,155.19,-208.18,-0.6427,0.4558,-0.5309
27.125,-279.86,35.21,-245.0,-0.4812,0.7671,-0.0054
27.284,-52.57,-2.17,-232.12,-0.9731,0.5958,0.1088
27.374,54.04,67.27,-149.73,-0.8272,0.5329,-0.1425
27.528,191.38,138.67,-73.78,-0.6978,0.894,-0.8242
27.608,319.69,92.19,98.56,-0.5846,1.2429,-0.6993
27.768,490.77,-253.82,467.53,-0.9189,1.6304,0.489
27.845,420.42,-439.88,266.49,-0.3152,1.4986,0.6085
28.004,209.65,-452.55,152.67,-0.8711,0.5495,-0.1088
28.082,199.15,-251.79,-122.92,-1.0033,0.8462,-0.6242
28.187,166.53,-6.65,-10.78,-0.5022,0.508,-0.9784
28.306,86.52,123.27,-189.28,-0.6978,0.7964,-0.8203
28.426,-32.9,256.69,-250.46,-1.1283,0.4538,-0.3109
28.546,-440.37,275.94,-407.61,-0.649,0.7027,-0.224
28.726,-511.84,75.95,-322.84,-0.3967,1.1126,-0.0224
28.789,-263.06,-21.07,19.39,-0.3826,0.774,-0.0005
28.908,-143.08,8.82,60.69,-0.8608,0.571,0.4821
29.091,48.93,11.27,4.06,-0.6671,0.5431,0.7003
29.212,40.25,-5.95,50.4,-0.6037,0.4953,0.5739
29.326,16.24,-5.39,20.23,-0.5256,0.8364,0.5002
29.444,11.48,-0.42,-23.03,-0.5558,0.6515,0.3928
29.478,6.23,0.63,9.94,-0.591,0.6466,0.3548
29.505,7.0,2.24,19.95,-0.5461,0.6852,0.3606
29.585,16.94,3.64,16.03,-0.5007,0.8028,0.3626
29.744,4.13,1.54,7.14,-0.5461,0.7974,0.3338
29.83,8.19,3.08,1.68,-0.5563,0.7842,0.2952
29.99,12.25,8.68,29.33,-0.4792,0.8301,0.3113
30.065,13.23,7.0,46.27,-0.3938,0.893,0.3196
30.224,19.04,25.69,-11.9,-0.9277,0.7291,-0.1137
30.364,67.69,135.38,-280.28,-1.7651,0.8672,-0.3792
30.524,89.32,221.2,-271.18,-1.668,0.6012,-0.6544
30.607,193.06,136.5,-127.19,-1.0853,0.6242,-0.4055
30.766,306.67,-119.63,-151.13,-0.2591,-0.1459,0.2782
30.848,306.18,-202.37,-137.9,0.1835,-0.2108,0.6071
30.944,342.51,-320.95,-40.53,1.0199,0.1566,1.3308
30.98,333.62,-378.35,8.89,1.1634,0.0898,1.4064
31.028,303.66,-428.89,52.29,1.0233,0.1488,1.3864
31.184,195.51,-294.91,40.53,0.8394,0.0952,-0.754
31.426,1038.9399,532.28,-391.23,3.6566,8.64,7.1033
31.508,771.33,-154.07,78.82,-0.4402,4.5106,1.3303
31.669,-173.39,-539.07,410.76,-2.237,2.2106,-0.305
31.746,-131.53,-66.64,245.42,-2.2038,2.0296,-0.5144
31.905,-118.09,176.12,78.82,0.1396,-0.1459,-1.1849
31.987,-236.32,101.71,26.95,0.1898,0.0459,-0.4446
32.148,-113.54,104.79,-172.41,-0.2586,0.8569,0.5134
32.229,10.29,177.1,-96.67,-0.366,0.9135,0.8194
32.386,165.62,291.06,-78.47,-0.6622,1.2717,1.1971
32.629,-114.73,140.63,-57.33,-0.7427,0.7354,-0.3616
32.705,-145.46,149.31,-44.52,-0.7266,0.7388,-0.3616
32.926,-117.53,62.3,-81.27,-0.3587,1.1253,-0.4958
33.009,-37.66,45.15,-35.63,-0.5041,0.9784,-0.3284
33.165,-19.74,13.3,-24.78,-0.4143,0.7618,-0.4939
33.344,-135.1,-49.21,30.59,-0.5046,0.8003,-0.2128
33.425,-118.72,-18.97,-1.4,-0.5124,0.9301,-0.123
33.584,-38.43,14.14,-6.3,-0.4665,0.8062,0.2074
33.663,-15.96,28.49,-37.1,-0.5114,0.7696,0.3626
33.824,17.08,-26.95,3.08,-0.5988,0.7608,0.4792
33.907,23.17,-19.18,7.77,-0.6095,0.7388,0.4534
34.066,4.76,-9.03,-13.16,-0.7935,0.7486,0.446
34.147,-5.04,-1.26,-18.69,-0.6534,0.7208,0.3719
34.368,-2.24,6.93,-16.8,-0.5783,0.7476,0.3226
34.448,0.91,3.08,2.87,-0.5632,0.7442,0.3406
34.608,-2.38,2.17,-0.07,-0.631,0.7056,0.3548
34.684,-2.52,3.15,2.73,-0.6002,0.7076,0.346
34.846,-0.77,-1.61,2.24,-0.5783,0.7266,0.3128
34.929,2.94,-3.99,7.07,-0.6041,0.7222,0.3045
35.088,5.39,0.56,-3.29,-0.609,0.7227,0.3284
35.165,6.93,-2.73,7.0,-0.5944,0.7413,0.324
35.444,5.81,-7.77,0.63,-0.5763,0.7442,0.305
35.526,13.23,6.86,9.87,-0.8818,0.6446,0.2308
35.644,24.22,104.09,-192.36,-1.626,0.4158,-0.2718
35.807,2.45,273.49,-344.26,-1.8734,0.3704,-0.4753
35.884,21.56,237.93,-203.28,-1.5616,0.2396,-0.7442
36.046,264.74,76.44,-98.84,-0.5973,0.1078,-0.2591
36.125,302.89,-12.67,-131.04,-0.1918,-0.1342,0.2264
36.411,399.77,-337.26,34.37,1.3864,0.9662,1.6187
36.524,466.55,-356.37,87.43,0.7788,1.5494,0.7188
36.602,521.71,-191.87,29.26,0.0698,1.4962,-1.3176
36.705,755.86,1358.5601,-258.44,-8.9787,7.6489,8.7035
36.827,985.46,461.09,-861.91,0.0913,2.2028,0.1127
37.007,67.41,-47.18,7.14,0.2918,2.2873,-0.9545
37.126,-17.22,96.88,-16.45,-0.1845,0.2513,-0.7754
37.25,-277.27,103.32,-318.64,0.1122,1.078,-0.3802
37.366,-232.4,-7.21,-324.94,-0.0795,1.2298,-0.307
37.487,102.06,-34.09,29.19,-0.1664,1.1014,-0.0605
37.607,214.13,-29.61,45.08,-0.2416,1.1082,-0.1747
37.726,295.19,-65.38,53.9,-0.6554,1.1468,-0.6017
37.851,236.81,-58.59,36.61,-0.5612,0.528,-0.3665
37.97,-17.57,-8.68,90.3,-0.5597,0.7745,-0.4202
38.091,-79.52,24.71,4.48,-0.5056,0.6534,-0.7603
38.206,-111.79,40.53,19.04,-0.386,0.4831,-0.5983
38.326,-113.89,45.85,13.3,-0.2923,0.8369,-0.5607
38.628,75.88,43.68,-5.18,-0.4407,0.8072,-0.5446
38.746,79.73,31.36,-52.5,-0.4231,0.5134,-0.6681
38.872,20.02,10.85,-23.45,-0.3465,0.6769,-0.6168
38.986,19.95,2.03,-45.01,-0.3611,0.5632,-0.6549
39.106,23.1,-3.64,-2.8,-0.4304,0.5139,-0.7496
39.223,11.41,-3.15,-17.01,-0.2533,0.2333,-0.8779
39.243,-21.7,-20.37,30.17,-0.2616,0.2381,-0.8647
39.26,-35.28,-26.53,54.95,-0.2669,0.2596,-0.8316
39.307,-46.27,-27.79,57.54,-0.2855,0.3406,-0.8198
39.466,-45.01,-6.3,8.75,-0.4563,0.4714,-0.7959
39.544,-48.93,8.75,14.07,-0.4753,0.426,-0.7798
39.705,-77.56,26.88,-52.08,-0.4695,0.7325,-0.6608
39.885,-71.33,16.1,-37.87,-0.4851,0.8276,-0.2582
40.004,-95.13,-0.21,-79.45,-0.652,0.8867,-0.0795
40.085,-104.44,-9.59,-68.04,-0.6451,0.8535,0.0747
40.189,-86.38,-0.98,-26.25,-0.6412,0.7754,0.2025
40.266,-102.9,0.0,23.8,-0.5949,0.5949,0.2006
40.489,-53.06,59.36,-23.03,-0.7554,0.6612,0.0937
40.57,3.99,-14.14,37.24,-0.3914,0.6866,0.2752
40.725,10.5,-3.85,36.26,-0.6939,0.7022,0.284
40.807,8.68,3.36,-3.15,-0.7671,0.6686,0.3616
40.965,4.06,0.77,6.09,-0.6637,0.6964,0.2767
41.045,4.27,0.49,16.38,-0.6012,0.6969,0.1723
41.204,12.6,8.61,-8.61,-0.9262,0.7647,0.1967
41.29,39.41,67.62,-119.98,-1.6485,0.5485,-0.326
41.446,7.28,245.35,-483.35,-2.7177,0.2708,-0.6037
41.528,76.93,216.86,-251.79,-2.1672,0.1005,-0.6188
41.745,336.84,-71.82,-201.6,-0.142,0.1425,0.4612
41.827,354.62,-114.87,-98.14,0.3387,0.082,0.4451
41.924,362.67,-291.2,117.88,0.8276,-0.0854,0.8428
41.962,315.84,-336.42,100.24,0.6373,-0.2255,0.9916
42.01,263.13,-332.5,2.38,0.8189,-0.019,0.6085
42.168,317.31,-252.77,-40.53,1.9388,1.5069,-2.5415
42.246,480.76,167.93,-92.05,-3.781,2.4781,-5.4514
42.407,-100.24,848.68,-205.24,0.8701,2.726,-1.4294
42.49,175.28,237.86,614.04,-3.0319,2.2985,-0.4592
42.603,-122.36,370.09,-229.74,-2.563,1.6211,-1.0224
42.704,-200.69,122.15,-159.81,-0.8447,1.3454,-1.0106
42.789,-115.22,34.3,-124.04,-0.6803,0.6964,-0.4119
42.944,2.38,-24.85,-7.98,-0.3762,0.3455,-0.4036
43.025,44.45,-38.01,-33.32,-0.243,0.6832,-0.6432
43.184,170.94,-102.9,70.7,-0.3489,0.874,-0.4255
43.28,236.32,-119.49,125.44,-0.3338,0.9052,-0.3943
43.427,308.49,-210.91,157.29,-0.4343,1.2205,-0.3465
43.504,348.25,-225.26,128.52,-0.7696,1.2761,-0.2933
43.604,360.57,-220.36,241.71,-0.957,0.6783,-0.1454
43.638,336.77,-226.45,279.16,-0.9692,0.692,-0.1196
43.744,246.89,-184.45,107.52,-0.7408,0.5451,-0.4597
43.864,146.37,-56.0,66.01,-0.5998,0.202,-0.7945
43.93,75.53,33.32,-11.2,-0.6866,0.244,-0.7501
44.086,-127.96,221.48,-207.48,-0.8677,0.326,-0.6437
44.164,-256.41,239.68,-232.96,-0.9077,0.1557,-0.5168
44.39,-290.01,-0.49,-122.85,-0.7437,0.7462,-0.3694
44.467,-193.34,18.27,-83.16,-0.5788,0.8335,-0.4821
44.685,-103.46,-34.79,26.32,-0.7779,0.5104,-0.0756
44.764,-97.79,-29.82,35.84,-0.7379,0.5124,0.0195
44.864,-62.93,1.19,-6.23,-0.8208,0.6378,0.2972
44.899,-35.63,16.59,-10.22,-0.8179,0.6344,0.4319
44.946,-7.49,31.57,-7.07,-0.835,0.5158,0.4075
45.106,65.03,-19.67,25.27,-0.7769,0.4968,0.489
45.191,30.87,-17.57,30.59,-0.6451,0.5588,0.3928
45.348,7.56,-1.61,30.31,-0.5719,0.7266,0.3967
45.425,7.63,-5.6,11.97,-0.6456,0.6983,0.449
45.588,3.01,37.94,-57.68,-1.2654,0.3953,0.0015
45.669,19.88,94.71,-185.85,-1.8593,0.3314,-0.368
45.828,70.7,208.95,-336.91,-2.0725,0.4436,-0.2718
45.906,138.46,147.91,-267.26,-1.6011,0.2059,-0.2884
46.064,227.85,-4.83,-258.86,-0.5114,-0.0864,0.0195
46.145,273.98,-16.59,-237.37,0.2318,0.3216,0.5168
46.306,381.15,-266.91,-17.29,0.9531,-0.0537,1.0658
46.404,409.29,-350.49,57.26,1.3122,1.1117,0.9853
46.548,496.44,-23.52,6.51,-2.0535,3.1881,-5.9429
46.624,774.13,1483.72,-152.32,-13.3273,5.1679,7.0399
46.85,-560.35,40.67,-134.82,-3.1769,-0.2865,0.9628
46.967,-571.13,-115.43,-245.35,-2.8777,1.5494,-0.3318
47.086,-346.36,-164.64,-191.03,-1.1156,0.3299,-0.6861
47.149,-102.9,-77.42,-123.69,-0.6466,0.3841,-0.427
47.206,-21.28,-53.55,-110.39,-0.7198,0.2367,-0.4875
47.269,36.33,-6.79,-22.47,-0.917,0.203,-0.407
47.327,80.22,58.03,0.77,-0.7871,0.1415,-0.4992
47.39,113.68,106.61,52.85,-1.0565,0.5109,-0.0888
47.445,184.17,161.7,150.64,-0.937,0.6739,0.0005
47.507,267.54,174.16,203.42,-1.0243,0.8642,0.1498
47.632,376.74,144.83,275.38,-0.8462,1.2117,0.0054
47.69,523.88,-87.85,306.67,-0.8208,1.1922,0.0005
47.806,507.85,-201.46,208.18,-1.079,0.3406,0.1957
47.93,291.55,-274.12,271.81,-0.7627,0.4665,-0.405
48.043,199.43,-185.36,44.1,-1.0594,0.3689,-0.4695
48.059,165.55,-0.7,75.53,-1.1043,0.3924,-0.4802
48.076,152.74,64.12,66.57,-1.1556,0.4099,-0.4597
48.127,132.93,177.73,-15.68,-1.2015,0.4939,-0.2879
48.285,-4.83,439.95,-165.2,-1.0224,0.3504,-0.3211
48.38,-303.94,414.4,-455.28,-0.4255,0.0288,0.5324
48.526,-390.46,39.48,-134.12,-0.7486,2.116,-0.6808
48.604,-40.32,-82.81,-227.57,-1.7963,2.1877,-0.8535
48.764,56.63,-1.47,131.6,-1.2869,0.7701,0.5031
48.848,132.37,-101.64,21.0,-0.164,1.6368,0.3172
49.008,-55.86,-132.02,-139.23,0.286,0.8823,1.0077
49.085,-73.64,-76.37,-97.51,0.0298,0.6188,0.6866
49.247,24.01,17.78,7.98,-0.3772,0.3484,0.405
49.325,89.67,49.42,-15.89,-0.4441,0.4846,0.2904
49.484,272.02,132.3,38.01,-0.6588,1.2664,-0.0932
49.631,493.64,-102.69,326.2,-0.6163,0.5153,-0.1264
49.786,81.9,-264.39,223.51,-0.2103,0.4919,-0.7242
49.865,-7.0,-230.86,219.38,-0.4392,0.7276,-0.5983
50.087,69.86,26.95,106.19,-0.9984,0.8545,-0.4455
50.165,134.82,157.5,44.17,-1.1224,0.8823,-0.612
50.325,-26.95,373.45,-267.05,-0.57,0.0264,-0.6608
50.409,-268.31,305.97,-492.1,-0.2338,0.4436,-0.4089
50.565,-237.23,34.3,-206.57,-0.7652,1.0429,-0.1074
50.645,-99.47,38.5,-10.43,-0.5334,0.9531,-0.3528
50.808,93.31,75.88,0.63,-0.5217,0.7056,-0.59
50.885,121.1,73.43,-10.64,-0.6417,0.3597,-0.4416
51.047,77.07,20.23,16.66,-0.6456,0.4041,-0.6149
51.125,65.31,21.84,8.68,-0.6832,0.3601,-0.5563
51.287,25.69,23.52,-38.01,-0.5588,0.386,-0.6173
51.364,23.1,13.51,-16.87,-0.5719,0.5226,-0.7598
51.529,-12.67,-3.36,28.21,-0.5651,0.2167,-0.7203
51.605,-71.26,-2.66,-11.97,-0.5192,0.1698,-0.9296
51.828,-68.6,-9.8,-19.53,-0.2728,0.4036,-0.7501
51.909,-35.98,-13.51,1.4,-0.3899,0.4753,-0.7876
52.065,14.91,-12.95,3.29,-0.5768,0.5856,-0.7808
52.145,16.17,2.24,6.93,-0.7749,0.3606,-0.5285
52.307,-97.93,-2.87,-60.9,-0.6608,0.4607,-0.3987
52.389,-116.9,-9.8,0.98,-0.6271,0.6437,-0.3445
52.545,-147.7,-6.02,30.8,-0.6725,0.7554,-0.1103
52.625,-169.82,9.03,71.05,-0.5622,0.8311,0.0966
52.847,-57.05,30.73,29.12,-0.3543,0.5802,0.266
53.025,-48.72,13.02,35.21,-0.5407,0.7315,0.4509
53.11,-16.45,33.18,23.8,-0.5666,0.6583,0.327
53.265,91.0,-11.41,-20.79,-0.7022,1.1419,0.2406
53.344,77.49,-57.12,-62.44,-1.1897,0.9365,0.4041
53.505,32.27,-74.62,20.09,-0.4221,0.3426,0.9897
53.587,-42.35,-52.99,-3.57,-0.0644,-0.3928,0.773
53.704,-108.15,0.7,40.6,-0.4182,0.7715,0.9379
53.925,22.47,80.64,73.36,-0.5353,0.2094,-0.0942
54.011,5.95,74.13,25.06,-0.2167,-0.242,-0.02
54.165,88.13,-22.33,-132.65,-0.934,2.6411,0.2362
54.245,147.63,-105.84,-59.99,-1.1024,1.0141,0.6012
54.464,-4.76,-53.97,-38.43,-0.0942,-0.2474,0.4885
54.545,-56.14,-35.63,-34.16,-0.509,0.5963,0.8833
54.705,0.35,62.23,45.29,-0.8877,1.057,0.2621
54.785,-1.61,60.62,-8.26,-0.3001,0.4714,0.0893
54.944,77.0,-0.91,-96.53,-1.1195,1.565,-0.1874
55.086,97.79,-56.14,-119.14,-0.629,-0.1937,-0.3719
55.204,169.05,84.98,-161.63,-1.8422,0.5841,-0.5861
55.266,214.55,140.49,-100.52,-1.5596,0.2547,-0.7774
55.493,452.97,-332.99,-33.46,-2.1223,0.3362,0.0708
55.57,153.58,-412.51,-201.67,-1.6377,-1.2795,0.1215
55.725,204.26,-448.14,161.7,0.6407,0.4953,-0.6359
55.802,162.75,-410.13,66.08,0.0703,1.2073,-0.3118
55.847,157.01,-411.81,79.31,1.2215,-0.4509,-1.8993
56.027,274.89,-286.37,90.65,-6.628,2.3117,2.2038
56.148,718.9,-264.6,753.41,0.6105,5.6144,-5.9199
56.266,935.06,-165.06,75.04,-3.7205,3.7444,0.6412
56.446,931.07,-613.34,758.66,-0.8242,-0.0322,-1.4147
56.628,-184.59,52.5,196.28,-0.5329,1.0141,-0.6954
56.746,-5.53,316.82,212.17,-1.6694,1.9081,-0.5973
56.927,124.39,663.6,-313.25,-1.1141,0.285,0.3074
57.048,-503.58,560.0,-813.54,-1.0443,1.2908,0.7549
57.168,-409.92,-135.38,54.18,-0.7422,1.1444,0.2377
57.346,-152.11,25.69,27.02,-0.9955,0.2889,-0.202
57.466,280.49,176.33,247.66,-0.8242,1.1161,0.1557
57.587,457.87,73.78,402.57,-0.5529,0.4509,-1.6426
57.706,287.77,-247.73,316.4,-1.2766,1.0604,-0.161
57.828,227.92,-199.5,302.54,-0.2655,0.3592,-0.4275
57.946,15.12,-155.12,183.19,-0.4104,0.4006,-0.8316
57.963,-36.89,-97.23,130.62,-0.4431,0.4714,-0.7603
58.068,14.77,13.02,52.78,-0.448,0.9135,-0.5051
58.145,88.27,88.06,-26.39,-0.3855,1.1692,-0.8545
58.304,78.33,326.27,-87.5,-0.6422,0.4329,-0.7769
58.4,-120.96,384.37,-241.43,-0.0478,0.3948,-0.304
58.545,-323.61,179.06,-196.0,-0.0586,0.9882,0.2704
58.624,-263.76,132.09,-63.49,-0.2616,0.9062,0.3523
58.787,6.02,84.7,-84.56,-0.6856,1.1239,0.3143
58.866,139.51,74.55,-69.09,-0.5675,0.8037,-0.1679
59.027,287.49,92.4,48.58,-0.3465,1.0663,-0.0278
59.147,393.4,33.18,184.24,-0.5578,0.7252,-0.4509
59.385,249.62,-225.61,245.21,-0.6993,0.5192,-0.5998
59.426,95.55,-115.08,173.11,-0.5905,0.4558,-0.6456
59.447,68.6,-62.16,44.66,-0.5431,0.4724,-0.6895
59.505,24.85,36.33,-36.75,-0.5168,0.3758,-0.8896
59.584,-37.87,127.89,65.17,-0.7998,0.1581,-1.1844
59.75,-177.45,242.27,-146.93,-0.4612,0.347,-0.6891
59.83,-219.03,199.85,-181.44,-0.326,0.5817,-0.6905
59.986,-199.08,61.11,-173.67,-0.2074,0.9579,-0.6417
60.064,-162.26,28.63,9.8,-0.4782,0.8969,-0.3279
60.225,-118.65,23.52,-33.25,-0.529,0.7296,-0.001
60.31,-79.45,23.66,-0.28,-0.6422,0.6647,0.0966
60.465,-46.2,45.99,-41.02,-0.7305,0.5627,0.2094
60.56,-41.3,51.73,-86.52,-0.7052,0.547,0.2572
60.705,-44.31,7.35,23.87,-0.5544,0.5724,0.2865
60.785,-60.13,-19.74,73.01,-0.5505,0.5466,0.344
60.947,-42.07,-21.56,58.03,-0.6051,0.9082,0.5339
61.03,10.15,-15.82,35.28,-0.5822,0.8584,0.773
61.184,17.78,-20.51,-51.17,-0.4992,0.4416,0.7022
61.265,-11.34,-25.06,-97.58,-0.3426,0.569,0.7091
61.425,-10.71,8.68,-27.09,-0.3836,0.2621,0.833
61.509,-35.0,13.51,1.61,-0.6466,0.7193,1.0541
61.667,-32.2,-4.06,96.53,-0.327,0.306,0.3719
61.745,-2.87,9.52,57.68,-0.2772,0.002,-0.103
61.907,13.02,20.23,115.29,-0.8545,0.7335,1.5382
61.987,47.04,2.45,-8.82,-1.0126,0.305,1.0697
62.145,35.14,35.07,11.69,-0.5295,0.0737,0.1566
62.226,28.91,-46.62,-80.22,-0.8579,1.2063,0.4392
62.385,-9.73,-3.36,70.42,-0.1796,-0.4363,0.8794
62.48,-122.92,50.4,92.82,0.0781,0.0922,0.9897
62.625,-104.37,148.75,96.67,-0.7993,2.1775,0.9179
62.72,-37.94,76.09,49.91,-0.1649,0.974,-0.1318
62.865,-22.96,-4.34,-46.55,-0.2503,-0.2684,-0.5012
62.947,73.92,-20.37,-220.29,-1.5284,1.7607,-0.1391
63.167,94.71,-73.22,-18.76,-0.0024,0.1127,0.3509
63.247,38.43,-77.0,-10.99,-0.1781,0.1889,0.4582
63.405,168.91,-26.46,50.05,-0.5378,1.9544,-0.1279
63.486,88.55,-53.55,59.57,-0.4412,0.2259,-0.285
63.705,176.96,39.13,-256.48,-1.0551,1.1785,-1.2156
63.8,151.13,23.87,37.73,-1.2454,-0.103,-0.4797
64.005,6.93,-74.06,-26.11,-1.1922,0.3938,-0.4831
64.087,-24.92,-97.58,-91.7,-1.0155,-0.1142,-0.8574
64.184,-42.63,-102.76,-103.25,-0.2977,0.1942,-0.895
64.219,-23.31,-48.09,-72.66,-0.182,0.3601,-0.9955
64.266,-134.05,401.31,-361.2,-1.2337,1.1605,-0.6783
64.427,135.87,29.47,314.3,-1.2503,0.1781,-0.5954
64.505,107.73,10.22,168.0,-1.3644,0.1854,-0.5836
64.665,90.16,10.36,68.53,-0.791,0.7037,-0.7623
64.805,115.08,3.92,117.6,-0.4002,0.0176,-0.7359
64.965,75.32,-64.75,131.6,-0.547,0.162,-0.7047
65.049,63.84,-86.31,159.25,-0.8145,0.59,-0.7388
65.205,-70.07,-9.52,-38.99,-0.6617,0.0717,-0.2416
65.291,-52.99,24.01,-68.32,-0.9023,0.6925,-0.0942
65.401,-78.68,31.71,25.9,-0.5934,0.1566,-0.7901
65.505,-153.44,33.81,-42.0,-0.7935,0.4738,-0.875
65.589,-165.83,42.98,0.56,-0.7183,0.3826,-0.6032
65.746,-111.16,74.69,-60.34,-0.7115,0.7325,-0.3304
65.885,-70.77,91.77,-20.51,-0.4734,0.3899,-0.2416
66.047,-4.27,110.88,-57.68,-0.6285,0.6549,-0.935
66.124,19.74,99.68,-75.39,-0.4172,0.5563,-1.1317
66.346,84.49,16.45,-15.89,-0.3455,0.3201,-0.4065
66.429,44.03,-17.92,-12.67,-0.4006,0.3797,-0.6861
66.548,3.01,-29.89,57.61,-1.0136,0.4548,-0.8935
66.606,-8.96,0.91,34.93,-0.8316,0.4153,-0.4294
66.885,-62.16,-67.83,41.93,-0.6812,0.3318,-0.6944
66.967,-72.66,-41.16,-23.45,-0.7052,0.4216,-0.5095
67.125,-32.69,17.78,-35.14,-0.6554,0.6041,-0.7784
67.22,45.5,45.99,-37.8,-0.4978,0.7925,-0.6163
67.371,199.5,34.51,113.82,-0.2796,0.8194,-0.5075
67.445,242.9,-22.54,155.47,-0.2445,0.7637,-0.6578
67.605,208.18,-136.36,265.23,-0.7383,0.5446,-0.854
67.685,155.19,-123.97,223.44,-0.8106,0.5339,-0.671
67.847,70.56,-16.31,47.88,-0.7198,0.3797,-0.6676
67.928,26.39,13.44,33.6,-0.6403,0.2582,-0.5388
68.085,-52.5,69.09,-67.76,-0.8501,0.3865,-0.3211
68.18,-70.28,76.58,-96.04,-0.7354,0.5617,-0.5993
68.325,-93.1,27.3,-90.37,-0.6905,0.5192,-0.7813
68.42,-102.62,15.54,-73.43,-0.5666,0.4006,-0.7066
68.566,-93.45,-33.6,-79.38,-0.2991,0.486,-0.917
68.644,-83.93,-45.29,5.18,-0.3113,0.3694,-0.7261
68.804,-71.96,2.1,-27.3,-0.6466,0.5109,-0.792
68.944,-88.06,30.87,20.09,-0.6944,0.3143,-0.3499
69.045,-118.37,67.2,-18.48,-0.6207,0.4529,-0.3626
69.13,-115.85,77.21,-11.9,-0.2611,0.2225,0.0122
69.285,-119.21,114.94,-48.23,-1.2122,1.3025,-1.0097
69.37,31.99,124.18,-203.56,-1.1092,2.0964,-0.9862
69.587,123.48,89.67,-151.13,-0.0761,0.6866,0.0732
69.665,37.73,15.12,-94.92,-0.4548,-0.1196,0.181
69.764,-128.8,-78.33,-167.65,-0.733,0.2704,-0.978
69.798,-180.04,-123.83,-115.71,-0.8037,0.2684,-1.0799
69.845,-213.36,-161.56,-67.76,-0.6895,0.7398,-0.6486
70.005,-189.77,-188.02,73.5,-0.3963,0.7198,-0.1474
70.087,-200.13,-138.25,125.3,-1.5728,1.3386,-1.4821
70.304,-4.34,167.79,-30.03,-0.3094,-0.3611,0.0205
70.385,-47.6,118.93,-69.37,0.0473,-0.2045,-0.5373
70.604,52.71,47.88,-6.16,-1.1707,0.9033,0.2328
70.752,-98.49,-73.15,-23.24,-0.059,-0.019,0.7056
70.911,-62.58,13.44,-2.38,-1.2864,2.0476,-0.8403
70.988,4.2,34.86,128.45,-0.8067,0.551,-0.4773
71.205,-80.92,24.29,-45.36,-1.505,1.3244,0.0683
71.285,-91.0,49.0,-98.42,-0.7178,0.3821,0.3845
71.384,-148.19,-30.73,10.08,0.0146,1.1014,0.7364
71.42,-154.28,-40.53,-42.77,-1.0472,0.4514,0.4031
71.467,-120.75,2.03,-19.46,-1.4616,0.6978,0.3021
71.624,-6.23,178.36,-91.21,-0.1976,-0.3538,-0.4987
71.705,37.38,164.15,-71.54,-0.042,-0.1889,-0.4924
71.925,72.24,219.24,222.53,-1.2634,0.0117,-0.0527
72.169,-161.91,-594.58,86.66,-4.2895,0.0322,-4.1817
72.246,-130.48,-963.13,-203.98,-3.4345,2.1526,-7.85
72.405,64.61,-398.65,101.36,-2.6991,0.975,-0.6037
72.491,-61.11,327.95,-19.25,-0.3328,0.0717,0.1903
72.545,18.2,304.08,177.24,0.1108,-0.2128,-0.3538
72.767,24.15,508.55,-3.08,-3.1178,-0.2982,1.8529
72.86,31.85,581.42,-131.39,-1.8422,1.0009,1.3342
73.064,172.34,64.26,199.01,-1.5484,0.3933,-0.4616
73.146,-60.06,64.4,25.55,-1.4113,-0.3084,-0.7603
73.305,-281.12,-65.03,-126.98,-0.3426,0.3436,-0.1049
73.386,-236.67,-126.56,-95.2,-0.3743,0.4939,-0.0102
73.549,-124.39,-34.16,-76.65,-1.9432,0.8628,-0.2094
73.626,-66.71,94.08,130.55,-2.1145,-0.019,-0.6134
73.788,85.26,292.74,229.39,-1.1458,0.307,0.164
73.929,-28.49,287.98,-82.39,-0.5319,-0.2411,-0.2059
74.085,-258.23,105.84,-348.25,-0.5168,1.1102,-0.1254
74.165,-168.28,125.37,-377.58,-1.4923,0.998,0.5514
74.387,-51.8,20.72,-19.32,-0.937,0.1283,0.0181
74.464,14.0,7.84,0.07,-1.1575,0.9809,-0.3206
74.627,173.6,50.4,91.0,-0.5632,0.2928,-0.4455
74.706,195.72,23.8,91.21,-0.2967,0.2801,-0.5622
74.866,157.64,-83.79,136.71,-0.4036,0.0449,-1.2122
74.984,141.33,-99.47,50.68,-0.6066,0.4172,-1.18
75.109,117.81,-70.14,190.05,-0.5422,0.0996,-0.6876
75.186,110.74,-60.2,149.24,-0.364,0.5095,-0.4597
75.346,172.27,-29.82,118.37,-0.7066,0.7183,-0.7247
75.49,65.17,108.29,-55.16,-0.9184,-0.1893,-1.1761
75.644,-237.86,83.23,-162.82,-0.4499,-0.143,-0.5392
75.731,-301.35,-1.82,-269.01,-0.4187,-0.0766,-0.5505
75.947,-62.65,-70.77,-204.75,-1.2503,0.245,-0.6837
76.03,17.5,42.63,17.36,-0.9511,0.144,-0.5236
76.184,113.68,167.16,142.03,-0.8072,0.101,-0.1108
76.325,145.88,150.01,108.92,-0.9809,-0.1191,-0.5202
76.484,55.65,65.24,3.5,-0.6285,-0.0732,-0.9984
76.566,-24.08,-8.47,11.06,-0.1991,-0.1781,-1.0931
76.725,-152.67,-117.81,23.45,-0.3035,0.0156,-1.0258
76.806,-177.24,-141.4,87.29,-0.3348,0.0615,-1.0712
76.967,-266.98,-221.62,27.44,-0.3084,0.1025,-0.2611
77.045,-208.81,-181.16,-35.21,-1.7241,1.6099,0.6237
77.211,5.39,27.16,-34.37,-0.4002,0.4475,0.6959
77.291,55.09,77.35,44.8,-0.5392,0.0986,0.7569
77.447,185.57,133.28,155.12,-0.7115,0.9789,0.3655
77.524,172.27,105.91,-15.54,-0.6544,0.3904,-0.1279
77.684,15.68,36.89,10.99,-0.3792,0.6866,-0.2001
77.762,-6.3,23.73,-37.1,-0.2811,0.7496,-0.2259
77.927,33.95,-30.59,9.87,-0.1659,0.8945,-0.4499
78.047,51.31,-27.16,-3.29,-0.4856,0.7784,-0.7125
78.227,59.15,-22.05,34.93,-0.3616,0.486,-0.4275
78.346,19.32,16.87,3.57,-0.1752,0.8272,-0.2338
78.469,46.27,14.7,84.63,-0.143,1.1668,-0.9828
78.588,66.22,12.39,29.75,-0.2811,0.3709,-0.7603
78.766,11.2,54.25,-65.66,0.0747,0.5295,-0.8457
78.888,-92.82,1.26,-57.05,0.0073,1.3893,-0.6837
79.004,-18.55,-28.0,161.21,0.0317,1.078,-0.3943
79.021,-23.1,-50.33,272.86,0.0561,1.0887,-0.4036
79.041,-37.45,-53.06,261.8,0.0869,1.1097,-0.387
79.088,-55.16,-56.35,221.2,0.1566,1.0477,-0.4856
79.247,-67.83,-94.36,257.67,0.2323,0.6603,-0.489
79.325,-76.65,-44.59,127.47,0.0078,0.3972,-0.3333
79.487,-22.68,4.69,-203.0,0.4509,0.8174,-0.4543
79.624,89.32,-61.46,-22.96,0.5183,0.7247,-0.5919
79.785,73.85,-37.24,-291.62,-0.0625,0.8047,-0.9057
79.865,53.55,18.9,-346.85,-0.1854,0.8369,-0.9618
80.03,-18.76,47.74,-40.18,-0.3235,0.6544,-0.7837
80.106,-56.14,52.43,-98.7,-0.3689,0.6373,-0.8018
80.147,-74.69,55.37,-89.81,-0.3982,0.4714,-0.8052
80.267,-97.72,56.77,-90.86,-0.3601,0.486,-0.7408
80.391,-118.16,52.78,-133.49,-0.3636,0.5056,-0.713
80.507,-91.7,7.14,-26.18,-0.5402,0.6939,-0.6095
80.625,-33.95,7.77,-3.71,-0.4304,0.5163,-0.6124
80.747,9.31,21.91,-19.46,-0.5046,0.6256,-0.6105
80.869,14.49,34.09,-31.08,-0.4646,0.6476,-0.6285
80.989,15.75,33.74,-37.59,-0.4451,0.6061,-0.6295
81.103,2.66,22.26,-34.16,-0.4519,0.5797,-0.6344
81.122,-15.05,9.45,-42.28,-0.4494,0.589,-0.6364
81.141,-20.93,6.3,-42.56,-0.4607,0.6037,-0.6422
81.185,-26.04,3.01,-40.95,-0.4851,0.5793,-0.6612
81.407,-82.95,-33.25,-15.89,-0.5334,0.5885,-0.5402
81.485,-107.87,-48.79,-9.59,-0.551,0.631,-0.4773
81.772,-140.49,-26.81,23.8,-0.8228,0.5592,0.0625
81.947,-66.78,34.86,-51.03,-1.035,0.5007,0.5168
82.085,0.21,6.79,31.15,-0.7462,0.5632,0.7037
82.249,17.36,-26.95,-7.14,-0.5612,0.3797,0.5744
82.325,30.17,-24.78,-30.52,-0.5031,0.387,0.3401
82.547,57.33,-25.69,1.89,-0.9062,0.6959,0.5866
82.627,26.74,-21.21,-41.86,-0.6949,0.5763,0.5807
82.785,-6.3,-25.9,-8.19,-0.6217,0.2982,0.5031
82.865,-21.35,-31.57,-40.88,-0.5197,0.1225,0.4158
83.026,-42.14,37.66,12.67,-0.6725,0.4187,0.9721
83.105,-13.3,48.58,20.51,-0.5641,0.6037,0.8599
83.269,-14.63,16.59,-7.07,-0.6754,0.3553,0.5134
83.345,11.69,23.52,-29.33,-0.8296,0.6237,0.4919
83.508,33.88,-3.5,-23.24,-0.8413,0.364,0.3523
83.585,34.72,0.91,-13.72,-0.8442,0.5236,0.3421
83.808,75.67,65.59,-99.47,-0.9355,0.2777,-0.3353
83.885,97.93,88.27,-88.97,-0.3045,0.1449,-0.2718
84.108,65.17,55.79,-273.63,-2.3361,-1.222,-1.4215
84.185,219.8,-49.98,-332.71,-3.1652,-0.264,-1.2293
84.349,334.88,-426.79,-307.72,-0.8179,0.1152,0.3367
84.425,462.0,-580.93,118.3,0.571,2.0657,-0.1083
84.589,544.18,114.1,-87.78,-5.126,4.0743,-5.1186
84.665,754.32,1959.72,-364.21,-10.6657,3.1964,8.4722
84.824,487.27,36.19,329.0,-2.3985,2.0989,1.0663
84.904,49.21,161.14,294.14,-1.8768,2.4546,-0.5314
84.946,-202.72,183.26,-98.21,0.1737,1.0185,-1.4616
85.072,-371.21,121.31,-287.56,-0.6651,2.4044,-0.7286
85.192,-262.43,-0.42,-454.3,-0.0634,1.8876,-0.7491
85.309,255.43,102.13,-76.37,0.1269,0.9589,-0.2455
85.432,347.76,124.6,-33.95,-0.082,0.0527,-0.0361
85.611,155.4,-67.27,238.77,-1.587,1.1,-1.2532
85.847,1.89,144.06,33.04,-0.7047,0.3948,-0.1786
85.968,-258.72,112.21,-284.62,-0.8735,0.5651,-0.3382
86.087,-296.31,-26.6,-221.62,-1.3532,0.853,-0.3938
86.205,-211.12,-7.63,-195.58,-0.7047,0.4763,-0.3211
86.239,-64.61,57.19,-101.64,-0.4387,0.4773,-0.2664
86.268,21.91,77.21,30.03,-0.2411,0.4382,-0.2411
86.36,149.66,72.59,190.68,-0.324,0.6295,-0.2586
86.504,350.28,-106.05,272.44,0.0073,1.5684,-0.5197
86.584,413.42,-272.58,369.81,-0.4973,1.8149,-0.4997
86.627,404.04,-343.42,420.7,-1.2786,1.8402,0.0185
86.748,344.96,-390.39,348.53,-0.7676,0.7686,0.6251
86.872,253.12,-394.94,230.93,-0.7017,0.4294,-0.1322
86.988,114.8,-272.51,20.58,-0.4455,0.9521,-0.6944
87.109,172.83,-158.13,-56.63,-0.8262,0.8345,-0.7535
87.227,206.29,107.1,-76.65,-1.2229,0.7422,-0.7745
87.286,19.39,437.78,-364.28,-1.3918,0.3314,-0.12
87.349,-270.97,522.97,-559.44,-1.1253,0.7881,0.5119
87.411,-597.31,294.42,-690.34,-0.915,1.3547,0.4641
87.469,-591.22,-6.93,-491.19,-0.794,1.4972,0.1074
87.526,-436.31,-137.13,-146.65,-0.6349,1.4396,0.0683
87.586,-302.54,-138.18,6.65,-0.5861,1.2864,0.0669
87.649,-210.35,-111.79,7.91,-0.305,0.8828,0.4446
87.706,-127.4,-94.85,36.12,-0.5797,0.6398,0.5407
87.766,-65.31,-64.47,115.22,-0.4582,0.3802,0.5885
87.826,-28.98,-34.16,152.39,-0.3621,0.2704,0.6256
87.886,-15.47,-18.9,132.02,-0.5739,-0.0922,0.5905
87.947,-22.47,12.46,142.52,-7.7904,0.1152,3.2701
88.01,-29.12,-18.34,23.03,0.1103,1.5211,0.0346
88.068,40.18,-73.08,72.03,1.6143,1.7988,0.5812
88.131,126.98,-207.34,319.34,0.9843,3.4297,0.8106
88.189,223.23,-316.47,377.79,0.5266,3.843,1.9403
88.246,304.43,-383.32,157.78,0.141,1.8129,1.9881
88.309,342.51,-332.78,-109.76,-0.6139,0.408,0.6895
88.367,289.38,-167.58,-41.16,-0.142,0.8228,0.2869
88.426,224.07,-57.82,-93.87,0.3377,0.7764,0.4124
88.486,173.74,36.96,-195.58,0.6739,0.3616,0.2752
88.546,102.55,89.81,-143.01,0.998,0.429,0.1718
88.606,52.29,87.29,-7.91,1.3952,0.9745,-0.2406
88.666,40.81,46.62,131.25,0.7061,0.0107,-0.9409
88.726,-24.15,48.79,184.38,0.9189,-0.3143,-0.7735
88.788,-96.67,64.61,188.51,0.5949,0.4099,-0.3933
88.851,-100.24,95.34,171.57,0.5553,-0.0429,-0.3967
88.908,-95.9,109.34,147.49,0.5085,0.08,-0.4758
89.026,-86.31,113.89,96.46,0.7798,0.1142,-0.5876
89.089,-37.31,78.4,32.27,0.4397,-0.0844,-0.303
89.146,-17.64,70.07,19.32,0.8237,-0.1571,-0.4065
89.205,-8.33,51.52,7.28,1.4664,-0.2489,-0.4934
89.268,-3.78,6.02,9.87,1.1322,-0.1869,-0.4163
