timestamp,gyrox,gyroy,gyroz,accelx,accely,accelz
0.553,2.1,-1.4,0.14,1.0213,-0.0131,0.1551
0.57,2.24,-1.4,0.14,1.0204,-0.0126,0.1551
0.585,2.24,-1.4,0.28,1.0204,-0.0141,0.1566
0.603,2.03,-1.47,0.14,1.0204,-0.0117,0.1566
0.618,2.17,-1.4,0.28,1.0213,-0.0136,0.1537
0.635,2.17,-1.47,0.21,1.0199,-0.0146,0.1556
0.65,2.1,-1.4,0.07,1.0208,-0.0141,0.1571
0.668,2.24,-1.4,0.07,1.0194,-0.0131,0.1561
0.685,2.1,-1.4,0.21,1.0199,-0.0131,0.1561
0.701,2.24,-1.33,0.14,1.0208,-0.0141,0.1556
0.717,2.17,-1.4,0.07,1.0199,-0.0136,0.1556
0.734,2.1,-1.4,0.07,1.0213,-0.0136,0.1566
0.75,2.24,-1.47,0.14,1.0204,-0.0151,0.1571
0.768,2.1,-1.4,0.0,1.0223,-0.0146,0.1571
0.784,2.03,-1.4,0.28,1.0204,-0.0131,0.1571
0.798,2.24,-1.4,0.21,1.0189,-0.0136,0.1566
0.816,2.03,-1.4,0.07,1.0223,-0.0136,0.1556
0.834,2.1,-1.47,0.28,1.0218,-0.0136,0.1566
0.852,2.03,-1.4,0.21,1.0208,-0.0136,0.1556
0.869,2.17,-1.47,0.28,1.0208,-0.0146,0.1576
0.885,2.17,-1.4,0.14,1.0213,-0.0126,0.1561
0.903,2.24,-1.4,0.14,1.0194,-0.0136,0.1571
0.92,2.24,-1.4,0.14,1.0208,-0.0122,0.1561
0.936,2.24,-1.4,0.14,1.0204,-0.0141,0.1561
0.954,2.1,-1.4,0.21,1.0208,-0.0126,0.1576
0.972,2.17,-1.4,0.14,1.0218,-0.0156,0.1551
0.986,2.17,-1.47,0.28,1.0218,-0.0141,0.1561
1.004,2.17,-1.4,0.28,1.0228,-0.0151,0.1561
1.017,2.1,-1.4,0.21,1.0213,-0.0156,0.1586
1.035,2.17,-1.33,0.07,1.0208,-0.0141,0.1566
1.051,2.17,-1.47,0.28,1.0223,-0.0141,0.1561
1.069,2.1,-1.47,0.28,1.0208,-0.0122,0.1576
1.087,2.17,-1.47,0.14,1.0199,-0.0141,0.1546
1.105,2.1,-1.4,0.14,1.0218,-0.0136,0.1542
1.123,2.1,-1.4,0.14,1.0228,-0.0141,0.1566
1.141,2.1,-1.47,0.07,1.0233,-0.0141,0.1576
1.159,2.17,-1.33,0.07,1.0223,-0.0136,0.1581
1.176,2.03,-1.4,0.21,1.0213,-0.0146,0.1586
1.193,2.03,-1.4,0.21,1.0218,-0.0131,0.1581
1.21,2.24,-1.4,0.14,1.0204,-0.0136,0.1576
1.226,2.24,-1.47,0.21,1.0204,-0.0136,0.1556
1.242,2.1,-1.47,0.21,1.0208,-0.0117,0.1561
1.258,2.1,-1.33,0.21,1.0184,-0.0136,0.1556
1.275,2.17,-1.4,0.14,1.0218,-0.0146,0.1566
1.293,2.1,-1.47,0.14,1.0208,-0.0141,0.1566
1.31,2.24,-1.47,0.28,1.0208,-0.0141,0.1576
1.326,2.03,-1.4,0.21,1.0199,-0.0117,0.1561
1.344,2.24,-1.4,0.21,1.0204,-0.0117,0.1566
1.361,2.17,-1.4,0.21,1.0204,-0.0141,0.1576
1.377,2.17,-1.4,0.14,1.0233,-0.0131,0.1561
1.39,2.03,-1.47,0.07,1.0199,-0.0141,0.1556
1.406,2.24,-1.4,0.21,1.0204,-0.0141,0.1566
1.423,2.31,-1.4,0.21,1.0228,-0.0156,0.1561
1.438,2.17,-1.4,0.14,1.0199,-0.0117,0.1566
1.452,2.24,-1.4,0.14,1.0213,-0.0146,0.1556
1.466,2.31,-1.47,0.21,1.0194,-0.0126,0.1561
1.484,2.1,-1.4,0.21,1.0228,-0.0141,0.1576
1.498,2.24,-1.4,0.14,1.0204,-0.0146,0.1581
1.515,2.03,-1.47,0.07,1.0204,-0.0126,0.1561
1.532,2.03,-1.47,0.07,1.0228,-0.0141,0.1546
1.548,2.17,-1.47,0.07,1.0213,-0.0126,0.1566
1.562,2.17,-1.4,0.0,1.0199,-0.0126,0.1551
1.593,2.17,-1.47,0.21,1.0208,-0.0146,0.1561
1.61,2.1,-1.4,0.21,1.0204,-0.0146,0.1561
1.628,2.24,-1.47,0.21,1.0208,-0.0141,0.1566
1.645,2.17,-1.47,0.21,1.0199,-0.0131,0.1581
1.663,2.17,-1.47,0.21,1.0204,-0.0141,0.1571
1.681,2.17,-1.47,0.21,1.0179,-0.0146,0.1576
1.699,2.31,-1.47,0.21,1.0208,-0.0146,0.1581
1.716,2.24,-1.4,0.14,1.0208,-0.0117,0.1561
1.733,2.17,-1.47,0.21,1.0194,-0.0141,0.1576
1.751,2.17,-1.47,0.21,1.0213,-0.0151,0.1576
1.769,2.03,-1.47,0.14,1.0204,-0.0126,0.1566
1.787,2.17,-1.47,0.14,1.0204,-0.0136,0.1581
1.805,1.96,-1.4,0.14,1.0208,-0.0122,0.1566
1.822,2.17,-1.47,0.21,1.0199,-0.0141,0.1556
1.838,2.17,-1.47,0.21,1.0218,-0.0126,0.1566
1.855,2.1,-1.4,0.14,1.0199,-0.0141,0.1566
1.871,2.24,-1.4,0.28,1.0213,-0.0126,0.1571
1.889,2.17,-1.33,0.14,1.0204,-0.0126,0.1556
1.907,2.17,-1.4,0.0,1.0189,-0.0146,0.1556
1.925,2.24,-1.47,0.21,1.0189,-0.0122,0.1566
1.943,2.1,-1.4,0.21,1.0204,-0.0136,0.1556
1.96,2.03,-1.33,0.07,1.0247,-0.0126,0.1556
1.976,2.17,-1.33,0.14,1.0194,-0.0122,0.1551
1.992,2.17,-1.4,0.07,1.0199,-0.0131,0.1566
2.01,2.24,-1.4,0.07,1.0213,-0.0131,0.1566
2.028,2.17,-1.4,0.21,1.0208,-0.0112,0.1561
2.044,2.03,-1.47,0.21,1.0204,-0.0141,0.1561
2.061,2.24,-1.4,0.28,1.0218,-0.0126,0.1551
2.078,2.24,-1.47,0.28,1.0204,-0.0136,0.1551
2.096,2.24,-1.33,0.21,1.0204,-0.0141,0.1542
2.112,2.1,-1.47,0.28,1.0218,-0.0122,0.1561
2.129,2.1,-1.33,0.07,1.0208,-0.0136,0.1556
2.146,2.03,-1.4,0.07,1.0199,-0.0131,0.1561
2.162,2.1,-1.4,0.28,1.0208,-0.0151,0.1556
2.18,2.17,-1.4,0.21,1.0204,-0.0136,0.1551
2.197,2.24,-1.47,0.21,1.0218,-0.0146,0.1586
2.213,2.1,-1.4,0.21,1.0223,-0.0136,0.1566
2.231,2.24,-1.47,0.21,1.0208,-0.0146,0.1542
2.249,2.1,-1.4,0.14,1.0208,-0.0141,0.1571
2.266,2.17,-1.47,0.14,1.0208,-0.0131,0.1561
2.284,2.17,-1.47,0.21,1.0204,-0.0126,0.1556
2.301,2.1,-1.33,0.28,1.0208,-0.0156,0.1551
2.317,2.24,-1.4,0.21,1.0223,-0.0126,0.1556
2.335,2.17,-1.4,0.14,1.0208,-0.0136,0.1581
2.35,2.1,-1.4,0.07,1.0208,-0.0151,0.1546
2.366,2.24,-1.4,0.21,1.0208,-0.0117,0.1571
2.382,2.1,-1.47,0.21,1.0218,-0.0151,0.1551
2.398,2.17,-1.4,0.21,1.0199,-0.0146,0.1571
2.415,2.03,-1.4,0.28,1.0233,-0.0126,0.1571
2.433,2.1,-1.4,0.14,1.0213,-0.0151,0.1561
2.45,2.17,-1.4,0.21,1.0208,-0.0122,0.1561
2.467,2.24,-1.4,0.21,1.0223,-0.0141,0.1571
2.483,2.24,-1.4,0.14,1.0199,-0.0141,0.1556
2.5,2.17,-1.33,0.21,1.0223,-0.0151,0.1561
2.518,2.1,-1.47,0.21,1.0213,-0.0146,0.1561
2.533,2.1,-1.47,0.14,1.0223,-0.0131,0.1556
2.549,2.17,-1.4,0.14,1.0199,-0.0126,0.1581
2.565,2.03,-1.47,0.07,1.0204,-0.0141,0.1576
2.578,2.17,-1.47,0.21,1.0194,-0.0131,0.1566
2.593,2.1,-1.47,0.28,1.0218,-0.0136,0.1561
2.608,2.17,-1.33,0.14,1.0213,-0.0131,0.1566
2.621,2.24,-1.4,0.14,1.0199,-0.0141,0.159
2.639,2.03,-1.47,0.07,1.0213,-0.0131,0.1561
2.657,2.24,-1.4,0.21,1.0213,-0.0141,0.1556
2.67,2.1,-1.4,0.07,1.0228,-0.0122,0.1571
2.684,2.24,-1.4,0.14,1.0213,-0.0141,0.1566
2.701,2.1,-1.47,0.07,1.0199,-0.0151,0.1551
2.717,2.1,-1.33,0.07,1.0169,-0.0141,0.1566
2.732,2.17,-1.4,0.21,1.0204,-0.0151,0.1561
2.761,2.38,-1.33,0.07,1.0213,-0.0141,0.1566
2.779,2.03,-1.4,0.14,1.0199,-0.0141,0.1551
2.795,2.1,-1.33,0.14,1.0189,-0.0131,0.1571
2.811,2.24,-1.4,0.21,1.0218,-0.0131,0.1571
2.828,2.17,-1.4,0.21,1.0208,-0.0141,0.1576
2.843,2.17,-1.4,0.28,1.0213,-0.0131,0.1571
2.858,2.1,-1.4,0.35,1.0208,-0.0126,0.1571
2.875,2.17,-1.33,0.14,1.0213,-0.0156,0.1546
2.891,2.1,-1.4,0.14,1.0213,-0.0141,0.1566
2.908,2.03,-1.4,0.07,1.0189,-0.0136,0.1566
2.925,2.1,-1.4,0.21,1.0199,-0.0141,0.1576
2.943,2.17,-1.33,0.14,1.0208,-0.0126,0.1546
2.96,2.17,-1.4,0.21,1.0208,-0.0141,0.1566
2.977,2.03,-1.4,0.14,1.0213,-0.0131,0.1561
2.992,2.03,-1.47,0.21,1.0213,-0.0146,0.1561
3.008,1.96,-1.4,0.21,1.0204,-0.0122,0.1561
3.025,2.24,-1.4,0.42,1.0223,-0.0126,0.1576
3.041,2.24,-1.33,0.21,1.0213,-0.0122,0.1571
3.058,2.1,-1.4,0.28,1.0189,-0.0141,0.1586
3.073,2.17,-1.47,0.0,1.0218,-0.0136,0.1561
3.09,2.1,-1.47,0.07,1.0204,-0.0136,0.1581
3.108,2.1,-1.33,0.14,1.0208,-0.0122,0.1576
3.121,2.24,-1.47,0.28,1.0213,-0.0126,0.1581
3.135,1.96,-1.47,0.28,1.0189,-0.0136,0.1581
3.15,2.1,-1.4,0.14,1.0184,-0.0136,0.1571
3.164,2.03,-1.4,0.28,1.0218,-0.0141,0.1576
3.18,2.1,-1.33,0.28,1.0233,-0.0141,0.1556
3.195,1.96,-1.33,0.35,1.0223,-0.0122,0.1571
3.224,2.31,-1.4,0.07,1.0208,-0.0156,0.1556
3.24,2.1,-1.4,0.21,1.0208,-0.0136,0.1566
3.258,2.1,-1.4,0.28,1.0218,-0.0131,0.1556
3.273,2.1,-1.4,0.14,1.0218,-0.0141,0.1561
3.289,2.1,-1.4,0.07,1.0223,-0.0136,0.1546
3.307,2.1,-1.4,0.21,1.0223,-0.0136,0.1571
3.322,2.1,-1.4,0.21,1.0204,-0.0146,0.1566
3.338,2.24,-1.4,0.28,1.0208,-0.0136,0.1566
3.353,2.38,-1.4,0.21,1.0204,-0.0146,0.1571
3.369,2.17,-1.4,0.07,1.0204,-0.0136,0.1581
3.384,2.03,-1.4,0.21,1.0218,-0.0136,0.1556
3.398,2.1,-1.47,0.14,1.0194,-0.0131,0.1551
3.416,2.17,-1.4,0.14,1.0208,-0.0131,0.1576
3.434,2.17,-1.4,0.14,1.0218,-0.0146,0.1571
3.452,2.1,-1.47,0.28,1.0199,-0.0151,0.1571
3.469,2.1,-1.4,0.14,1.0218,-0.0146,0.1551
3.487,2.31,-1.4,0.14,1.0199,-0.0136,0.1571
3.503,2.24,-1.47,0.14,1.0213,-0.0126,0.1556
3.52,2.17,-1.47,0.21,1.0204,-0.0136,0.1566
3.537,2.1,-1.33,0.14,1.0213,-0.0131,0.16
3.553,2.24,-1.47,0.07,1.0199,-0.0131,0.1561
3.568,2.1,-1.4,0.21,1.0199,-0.0136,0.1581
3.585,2.03,-1.33,0.21,1.0204,-0.0131,0.1586
3.598,2.17,-1.4,0.21,1.0189,-0.0122,0.1566
3.615,2.1,-1.33,0.21,1.0223,-0.0126,0.1586
3.643,2.24,-1.4,0.14,1.0223,-0.0126,0.1566
3.66,2.17,-1.4,0.28,1.0204,-0.0146,0.159
3.678,2.1,-1.4,0.21,1.0194,-0.0131,0.1586
3.692,2.1,-1.47,0.21,1.0194,-0.0151,0.1576
3.71,2.1,-1.4,0.21,1.0218,-0.0146,0.1571
3.728,2.1,-1.4,0.35,1.0208,-0.0136,0.1586
3.746,2.1,-1.47,0.14,1.0218,-0.0136,0.1576
3.764,2.1,-1.4,0.14,1.0208,-0.0131,0.1576
3.778,2.03,-1.4,0.14,1.0218,-0.0136,0.1581
3.796,2.1,-1.47,0.07,1.0208,-0.0141,0.1561
3.814,2.17,-1.47,0.28,1.0208,-0.0117,0.1595
3.832,2.03,-1.4,0.21,1.0247,-0.0122,0.1586
3.848,2.17,-1.33,0.21,1.0204,-0.0136,0.1586
3.865,2.03,-1.26,0.14,1.0184,-0.0126,0.1551
3.883,1.96,-1.4,0.21,1.0233,-0.0136,0.1576
3.899,2.1,-1.26,0.35,1.0174,-0.0126,0.1581
3.916,2.24,-1.33,0.07,1.0204,-0.0136,0.1546
3.934,2.17,-1.4,0.14,1.0218,-0.0131,0.1576
3.952,2.17,-1.4,0.07,1.0228,-0.0122,0.1556
3.97,2.17,-1.33,0.21,1.0228,-0.0131,0.1566
3.986,2.31,-1.47,0.28,1.0199,-0.0146,0.1561
4.002,2.1,-1.47,0.28,1.0213,-0.0151,0.1595
4.018,2.1,-1.4,0.21,1.0189,-0.0136,0.1576
4.034,2.1,-1.47,0.07,1.0199,-0.0141,0.1586
4.05,2.1,-1.4,0.21,1.0199,-0.0131,0.1551
4.068,2.17,-1.4,0.14,1.0199,-0.0156,0.1561
4.082,2.03,-1.4,0.28,1.0204,-0.0126,0.1571
4.097,2.17,-1.4,0.14,1.0218,-0.0136,0.1571
4.115,2.03,-1.4,0.21,1.0213,-0.0131,0.1581
4.133,2.24,-1.33,0.21,1.0204,-0.0136,0.1581
4.151,2.17,-1.4,0.21,1.0213,-0.0126,0.1561
4.169,1.89,-1.4,0.21,1.0189,-0.0131,0.1556
4.187,2.17,-1.47,0.14,1.0204,-0.0151,0.1551
4.204,2.03,-1.4,0.07,1.0213,-0.0136,0.1561
4.219,2.17,-1.33,0.21,1.0208,-0.0141,0.1581
4.236,2.24,-1.47,0.14,1.0208,-0.0136,0.1561
4.252,2.1,-1.4,0.21,1.0204,-0.0146,0.1581
4.267,2.24,-1.4,0.14,1.0213,-0.0136,0.1571
4.283,2.1,-1.47,0.21,1.0194,-0.0141,0.1581
4.3,2.17,-1.4,0.14,1.0213,-0.0126,0.1561
4.318,2.1,-1.47,0.14,1.0194,-0.0136,0.1561
4.336,2.1,-1.47,0.28,1.0194,-0.0151,0.1566
4.354,2.17,-1.4,0.21,1.0204,-0.0136,0.1576
4.372,2.31,-1.4,0.14,1.0208,-0.0126,0.1576
4.389,2.24,-1.4,0.28,1.0189,-0.0146,0.1556
4.407,2.17,-1.4,0.14,1.0204,-0.0146,0.1551
4.421,2.31,-1.33,0.14,1.0213,-0.0156,0.1571
4.437,2.17,-1.33,0.21,1.0218,-0.0117,0.1571
4.453,1.61,-1.75,0.07,1.0091,-0.017,0.1615
4.468,2.03,-1.4,-1.33,1.0111,-0.0302,0.1625
4.486,2.03,-1.54,-0.35,1.0218,-0.0195,0.159
4.501,2.03,-1.54,0.91,1.0257,-0.0112,0.1639
4.515,2.24,-1.4,-0.7,1.0316,-0.0204,0.1595
4.533,2.59,-0.42,0.98,1.0389,-0.0039,0.1542
4.551,2.45,-1.12,1.05,1.0462,0.0014,0.1737
4.568,2.38,-1.47,-0.07,1.0247,-0.0029,0.1683
4.583,2.24,-1.4,0.91,1.0301,-0.0053,0.1551
4.6,2.38,-1.54,-0.35,1.0247,-0.0131,0.1625
4.616,2.24,-1.33,-1.05,1.0233,-0.0068,0.1629
4.632,2.24,-1.19,-0.63,1.0243,-0.0126,0.1546
4.649,3.78,1.33,-1.4,1.0213,-0.0219,0.0824
4.667,16.03,3.5,-7.91,0.9989,-0.0917,0.0692
4.684,0.98,-1.68,-3.43,0.9842,-0.1015,0.1595
4.701,2.1,12.88,6.93,1.1433,-0.6578,0.1063
4.717,-0.7,3.57,17.36,1.1331,-1.1785,0.6017
4.733,-67.2699,-162.05,-3.64,-1.2136,-0.7022,0.4099
4.75,-38.57,142.94,-2.8699,0.7373,-1.0667,0.3982
4.768,-10.01,27.72,-59.92,-0.4348,0.6222,0.098
4.785,33.6699,-78.61,-51.59,0.0458,1.0574,0.4474
4.803,34.23,7.28,49.07,2.7313,0.3777,0.2444
4.816,-15.05,1.47,2.31,2.2301,-0.0795,0.1859
4.83,-31.57,-11.6899,-17.22,1.8236,-0.1903,0.3689
4.846,257.04,212.66,-100.1,5.3684,2.2145,-1.7119
4.861,-94.99,62.16,-19.25,0.3596,0.6143,-1.4644
4.877,38.36,31.92,1.68,1.0482,0.2327,0.0527
4.905,-34.44,-115.92,10.29,1.2278,-0.1395,1.0184
4.923,6.79,51.59,-28.49,0.9364,-0.039,0.1976
4.939,-18.06,-35.4199,15.82,1.0535,0.037,0.4201
4.956,-0.98,-28.84,19.6,1.0306,-0.0043,0.3308
4.972,9.38,16.17,-8.1899,0.9764,0.0444,0.0653
4.987,0.21,3.36,13.3,1.0077,0.0034,0.2327
5.003,4.9699,-5.25,-2.8,1.0374,-0.0244,0.424
5.021,3.29,-4.9699,0.49,1.0106,-0.0312,0.3123
5.038,1.47,-8.1899,0.28,1.0086,-0.0204,0.2488
5.051,4.55,-2.17,-4.48,1.0082,-0.0307,0.2181
5.069,62.51,-7.84,-24.78,1.0135,-0.0692,0.2288
5.084,-43.68,-56.49,11.62,1.0101,-0.0034,0.8818
5.1,-86.8,-118.65,28.84,0.0927,-1.4176,1.6333
5.129,-0.84,14.21,-62.93,1.5947,-0.3747,1.2068
5.145,18.97,29.47,-105.91,2.4034,0.1058,0.8935
5.158,46.55,-19.4599,-150.4299,2.8757,0.589,0.6871
5.175,71.33,-62.23,-225.89,2.501,0.8256,0.5743
5.189,-49.21,-96.74,-215.18,1.6923,-0.1727,0.1922
5.219,122.36,2.66,-195.23,1.1433,0.5685,0.2713
5.236,105.63,22.33,-118.72,0.8217,0.3059,0.3259
5.251,91.42,44.66,-32.27,1.0301,0.1727,0.3825
5.269,74.06,60.13,64.75,1.0008,0.0922,0.5426
5.285,65.03,74.13,109.2,0.8964,0.0522,0.5724
5.303,65.5899,87.15,135.03,1.0926,0.0951,0.5431
5.319,66.78,94.01,141.6799,1.1819,0.1107,0.6768
5.336,69.79,96.74,140.84,1.1428,0.0078,0.75
5.353,74.2699,97.0199,131.6,1.2287,-0.2283,0.7607
5.369,73.01,94.22,116.13,1.2683,-0.3562,0.7593
5.383,65.73,89.95,97.0899,1.2956,-0.3455,0.7837
5.401,62.79,87.64,80.43,1.2019,-0.3581,0.8457
5.416,55.72,81.2,72.94,1.1331,-0.2,0.7256
5.431,53.9,77.98,71.33,0.9223,0.0107,0.5792
5.446,25.41,67.55,63.07,1.0067,-0.5163,0.6758
5.462,37.1,74.97,70.21,1.1346,-0.241,0.4313
5.48,35.35,69.72,67.48,1.0584,-0.1507,0.424
5.497,33.74,63.91,62.93,1.0291,-0.1058,0.3479
5.513,33.18,59.99,58.38,0.9652,-0.0917,0.2635
5.528,32.55,56.42,53.34,0.9296,-0.0385,0.2776
5.545,33.39,51.94,51.1,0.853,-0.0073,0.2937
5.561,36.75,46.13,49.0,0.7002,0.0068,0.3655
5.576,35.49,42.84,42.63,0.7168,-0.1708,0.3254
5.594,36.2599,34.5099,34.3,0.7139,-0.1966,0.3045
5.61,36.61,27.02,26.04,0.6841,-0.2113,0.2849
5.625,35.4199,22.19,21.35,0.709,-0.1932,0.2337
5.641,36.61,16.73,19.32,0.7227,-0.1473,0.24
5.658,53.2,6.58,19.25,0.8364,-0.0756,0.263
5.674,36.68,-2.24,20.79,0.972,0.0185,0.302
5.692,38.08,-14.07,21.42,1.0345,0.0478,0.2864
5.707,40.32,-22.82,17.57,0.974,0.0424,0.2498
5.723,42.56,-30.8,10.71,0.8354,0.0932,0.2425
5.738,45.36,-38.0099,4.9699,0.7388,0.1381,0.2405
5.754,49.49,-42.77,-0.35,0.6573,0.1834,0.2313
5.768,52.43,-44.94,-6.44,0.6573,0.1893,0.222
5.786,57.96,-47.88,-18.27,0.6148,0.2635,0.2127
5.804,65.03,-46.9,-35.91,0.5685,0.3357,0.1976
5.821,71.19,-46.27,-49.84,0.6397,0.2679,0.2747
5.839,75.25,-45.15,-58.45,0.7012,0.2357,0.404
5.857,77.28,-44.52,-57.54,0.7978,0.2601,0.4992
5.874,80.43,-45.64,-49.21,0.9511,0.2103,0.5504
5.89,76.44,-39.69,-39.55,0.7656,0.1903,0.4211
5.908,76.0899,-34.86,-32.55,0.8217,0.1293,0.4191
5.924,74.2,-31.5,-26.39,0.8466,0.0834,0.323
5.94,73.08,-23.87,-19.74,0.7905,0.0814,0.241
5.955,70.56,-17.99,-8.47,0.793,0.0946,0.2015
5.97,68.18,-10.22,1.26,0.7505,0.1244,0.1371
5.986,65.8,-0.7,8.1899,0.6056,0.1712,0.0268
6.004,65.24,11.62,17.08,0.6378,0.1952,0.0034
6.022,65.24,20.72,25.34,0.6192,0.2601,0.0463
6.04,65.5899,28.28,31.36,0.61,0.2684,0.0863
6.056,66.29,29.47,36.54,0.6329,0.2903,0.141
6.071,66.92,33.39,39.62,0.6153,0.2601,0.1703
6.088,67.2,33.81,40.74,0.61,0.2415,0.2469
6.103,68.67,33.32,38.5,0.6544,0.24,0.303
6.121,69.72,31.99,32.83,0.71,0.2454,0.3616
6.135,70.7699,28.98,29.4,0.7964,0.2625,0.4177
6.153,72.45,25.97,25.62,0.9237,0.2493,0.4626
6.17,73.71,21.84,24.29,1.0369,0.2498,0.5397
6.187,73.43,16.17,27.51,1.0526,0.2361,0.5841
6.203,73.01,11.4799,33.11,1.0404,0.2493,0.5377
6.22,73.99,7.77,37.66,1.0506,0.2947,0.5163
6.238,77.98,5.53,38.64,1.0316,0.3025,0.5075
6.254,80.57,2.52,36.75,1.0335,0.2537,0.527
6.272,82.67,0.35,33.81,1.0262,0.24,0.5358
6.285,85.54,-1.26,31.85,0.9584,0.2684,0.4875
6.302,88.55,-1.33,30.73,0.9667,0.2864,0.4626
6.318,90.3,-0.84,32.13,0.9833,0.2957,0.4401
6.334,90.93,-0.14,37.38,1.0218,0.3069,0.4274
6.348,91.56,0.21,46.41,1.0565,0.3162,0.4387
6.363,92.12,-0.21,52.43,1.076,0.2937,0.4962
6.38,93.45,-1.68,53.9,1.0653,0.2893,0.5509
6.398,96.53,-4.34,50.75,1.0916,0.2923,0.5943
6.426,102.3399,-8.12,43.33,1.1931,0.282,0.6324
6.443,106.68,-9.31,40.53,1.2849,0.2474,0.6446
6.461,108.92,-14.91,40.95,1.3703,0.2235,0.6012
6.477,111.44,-20.79,41.72,1.3049,0.2264,0.5758
6.492,112.14,-24.36,42.14,1.2775,0.1991,0.4982
6.509,114.03,-27.16,42.28,1.1712,0.1761,0.406
6.525,114.94,-29.4,42.49,1.0975,0.1483,0.3474
6.542,117.18,-28.42,40.11,0.9711,0.1166,0.1976
6.557,118.51,-25.34,37.8,0.9071,0.1263,0.1678
6.575,117.95,-24.01,39.7599,1.0106,0.1254,0.1878
6.588,117.18,-24.22,44.1699,1.0526,0.1551,0.2308
6.603,115.92,-24.57,45.85,1.1331,0.161,0.2884
6.619,115.08,-26.46,41.58,1.1297,0.1908,0.3006
6.633,116.34,-26.46,32.83,1.0023,0.2098,0.2318
6.649,118.65,-26.18,18.34,0.9525,0.1668,0.1771
6.663,120.47,-24.15,7.07,0.8432,0.1122,0.1098
6.69,119.49,-18.48,-3.64,0.8081,0.0405,0.0551
6.706,118.23,-15.89,-2.8699,0.7832,0.0263,0.0507
6.722,114.45,-13.79,0.7,0.667,0.0312,0.099
6.74,109.76,-11.41,8.68,0.5851,0.0204,0.1156
6.757,103.67,-12.39,16.66,0.5089,0.0004,0.1376
6.775,98.63,-8.75,22.9599,0.567,0.0,0.0849
6.79,93.73,-8.82,30.66,0.6309,0.0536,0.0883
6.808,87.85,-12.32,35.28,0.6485,0.1444,0.0863
6.826,86.24,-11.83,33.32,0.7237,0.1756,0.0068
6.844,85.26,-14.28,28.35,0.7622,0.2156,0.0097
6.862,83.65,-17.08,23.66,0.8056,0.2181,0.0019
6.88,82.04,-20.79,20.09,0.8818,0.2322,0.0161
6.896,80.5,-24.43,16.3799,0.9179,0.2464,0.0107
6.913,79.1,-29.33,14.35,0.9672,0.241,-0.0224
6.928,76.37,-32.34,14.7,1.033,0.244,-0.059
6.945,73.36,-36.54,17.99,1.1131,0.2566,-0.0775
6.963,70.07,-40.74,22.82,1.1331,0.2664,-0.0727
6.98,66.78,-45.29,25.41,1.2019,0.2122,-0.0649
6.997,62.72,-50.54,26.95,1.2356,0.1644,-0.0922
7.015,57.12,-53.34,29.47,1.2297,0.1512,-0.139
7.032,52.0099,-55.58,35.14,1.2585,0.1342,-0.1371
7.048,45.43,-55.93,42.0,1.2048,0.0512,-0.2005
7.064,39.41,-57.19,48.3,1.178,0.0014,-0.2713
7.081,32.41,-54.25,52.57,1.1751,-0.0546,-0.3333
7.096,24.78,-50.4,55.23,1.1316,-0.081,-0.3762
7.114,17.22,-45.08,56.14,1.1204,-0.1093,-0.3542
7.131,10.64,-40.46,53.55,1.1946,-0.1244,-0.2762
7.147,4.13,-36.82,47.95,1.197,-0.1288,-0.2352
7.165,-1.12,-32.69,35.98,1.2078,-0.1512,-0.2103
7.181,-7.07,-29.4,26.46,1.1624,-0.1654,-0.2566
7.197,-11.9,-23.66,18.83,1.0965,-0.1893,-0.2937
7.215,-16.1,-17.64,10.01,1.0111,-0.2025,-0.3015
7.233,-20.72,-10.78,4.9,0.913,-0.2078,-0.2849
7.247,-23.31,-5.88,1.75,0.8349,-0.2156,-0.2615
7.265,-28.56,-0.98,0.42,0.769,-0.2137,-0.2049
7.281,-33.04,2.94,2.59,0.7193,-0.1912,-0.1439
7.297,-36.96,5.39,7.28,0.7271,-0.1507,-0.0556
7.313,-40.25,5.95,11.76,0.7466,-0.0946,0.0258
7.331,-42.35,6.16,15.89,0.7354,-0.0356,0.0541
7.347,-43.12,6.37,15.05,0.7412,-0.0204,0.04
7.363,-42.98,7.14,12.04,0.7593,0.0004,0.0336
7.379,-42.4199,7.84,7.98,0.8305,0.0107,0.0429
7.395,-41.23,7.49,3.43,0.9106,-0.0043,0.04
7.411,-39.83,6.72,-0.56,0.9769,-0.0034,0.0302
7.429,-38.57,5.46,-7.63,0.9872,0.0039,0.0248
7.447,-34.44,5.04,-17.01,0.9964,-0.0019,0.0112
7.465,-30.73,4.48,-26.11,1.1038,-0.017,0.0444
7.481,-26.74,2.8699,-34.5099,1.1858,-0.0073,0.0907
7.497,-23.1,0.35,-43.12,1.3141,-0.0239,0.1161
7.514,-20.44,-2.8,-48.37,1.38,-0.0209,0.1127
7.53,-18.1299,-4.48,-50.4,1.3888,-0.0214,0.0839
7.548,-13.3,-4.34,-54.6,1.4215,0.019,0.0629
7.565,-10.92,-3.71,-60.41,1.1311,-0.0048,-0.0551
7.581,-8.47,-1.19,-63.77,1.0452,-0.0122,-0.1302
7.597,-5.81,5.88,-60.62,0.9467,0.0053,-0.2435
7.615,-5.04,13.3,-48.72,1.0018,0.0326,-0.203
7.632,-6.16,18.27,-35.07,1.0936,0.0775,-0.14
7.648,-7.91,21.28,-19.4599,1.1531,0.1302,-0.0697
7.664,-6.72,21.56,-9.24,1.1809,0.2122,0.0073
7.68,-3.71,20.58,-8.47,1.157,0.2654,0.0283
7.698,1.96,18.83,-16.3799,1.075,0.2698,0.0112
7.714,6.37,16.94,-26.88,0.9921,0.2244,-0.0087
7.731,10.99,14.84,-35.84,0.9681,0.1698,-0.0634
7.748,14.49,12.88,-41.23,0.9115,0.18,-0.079
7.766,17.99,10.43,-42.91,0.8896,0.1961,-0.0834
7.783,21.0,8.33,-42.14,0.8159,0.2332,-0.0927
7.8,23.8,6.37,-40.46,0.7568,0.2225,-0.0922
7.817,26.39,4.62,-37.94,0.6997,0.2327,-0.078
7.831,28.21,3.15,-35.7,0.6714,0.242,-0.0634
7.849,29.82,0.98,-29.89,0.6734,0.261,-0.06
7.866,31.57,-1.05,-23.1,0.6914,0.2898,-0.0722
7.884,33.6,-3.15,-16.87,0.7115,0.3381,-0.1029
7.899,35.49,-4.83,-12.46,0.71,0.3542,-0.1439
7.915,37.45,-6.65,-9.24,0.7603,0.3372,-0.1917
7.932,39.06,-8.96,-5.67,0.8652,0.3664,-0.2601
7.95,39.83,-11.76,0.84,0.993,0.3967,-0.3367
7.965,40.53,-13.86,7.35,1.0121,0.4069,-0.3845
7.983,40.46,-16.52,16.24,1.0653,0.3908,-0.4108
8.0,39.97,-19.67,21.77,1.2473,0.3801,-0.4514
8.015,39.69,-21.98,23.66,1.1702,0.3733,-0.4826
8.032,39.7599,-24.78,23.8,1.1863,0.342,-0.526
8.048,38.9199,-27.09,24.22,1.1692,0.2908,-0.5709
8.064,37.66,-28.56,26.32,1.198,0.2503,-0.5773
8.082,34.44,-30.66,32.27,1.1682,0.1556,-0.5651
8.1,30.38,-32.34,40.6,1.1516,0.0732,-0.5382
8.115,25.69,-33.46,49.35,1.1248,-0.0122,-0.4909
8.131,19.04,-34.5099,56.49,1.1126,-0.0541,-0.4284
8.146,12.81,-35.7,63.98,1.1521,-0.0844,-0.3752
8.164,4.13,-36.96,68.81,1.2136,-0.1015,-0.3694
8.181,-2.8699,-36.75,70.63,1.298,-0.1249,-0.3986
8.199,-10.43,-35.63,66.99,1.3517,-0.1517,-0.4816
8.216,-16.1,-32.06,58.87,1.2243,-0.1615,-0.4938
8.232,-20.23,-28.7,49.28,1.1214,-0.1756,-0.4611
8.248,-23.73,-23.87,39.2,0.9823,-0.1698,-0.4284
8.263,-26.39,-19.11,32.83,0.8579,-0.16,-0.4211
8.277,-28.91,-14.14,27.44,0.7998,-0.1815,-0.3489
8.293,-32.13,-9.38,22.9599,0.7564,-0.1649,-0.2581
8.31,-35.91,-5.6,21.49,0.7095,-0.141,-0.1532
8.326,-39.55,-3.64,21.7,0.6924,-0.1029,-0.0541
8.344,-42.4199,-2.24,24.01,0.6758,-0.0771,-0.0078
8.358,-45.15,-1.61,26.18,0.6705,-0.037,0.0375
8.375,-45.64,-1.26,26.81,0.7251,-0.0141,0.0429
8.39,-45.64,-1.4,24.15,0.7773,-0.0131,0.0297
8.408,-43.33,-1.75,14.63,0.8169,-0.0141,0.0126
8.425,-39.7599,-2.38,1.75,0.8964,-0.0244,0.0053
8.443,-35.7,-3.57,-14.14,0.996,-0.0322,0.0082
8.46,-30.87,-5.18,-32.27,1.1077,-0.0307,0.0078
8.476,-26.11,-7.0,-49.14,1.2078,-0.0126,0.0019
8.493,-21.91,-9.1,-62.72,1.2819,-0.0029,-0.017
8.511,-18.9,-9.87,-71.4,1.2629,-0.0034,-0.0624
8.525,-15.75,-9.1,-72.5899,1.2702,-0.0283,-0.0883
8.541,-13.58,-6.44,-68.6,1.179,0.0073,-0.1171
8.558,-12.39,-2.45,-58.45,1.0916,0.0405,-0.1468
8.573,-11.62,2.17,-46.83,1.057,0.0448,-0.1688
8.588,-10.92,8.05,-39.7599,1.0784,0.0346,-0.1615
8.604,-9.1,12.53,-35.21,1.1336,0.0536,-0.1166
8.619,-7.42,15.68,-32.48,1.2351,0.1161,-0.0658
8.634,-5.39,17.5,-31.22,1.2932,0.1834,-0.0756
8.648,-2.94,19.8799,-30.24,1.2361,0.2415,-0.1166
8.665,0.84,22.82,-29.96,1.1311,0.2576,-0.1429
8.683,5.46,25.48,-31.15,1.0345,0.2479,-0.121
8.701,9.66,27.72,-33.46,0.8808,0.223,-0.098
8.717,13.37,28.56,-36.4,0.8657,0.2186,-0.1107
8.735,16.66,29.82,-36.68,0.8261,0.2669,-0.1498
8.752,20.37,31.22,-33.6699,0.7407,0.3318,-0.1849
8.768,23.73,32.69,-28.84,0.6773,0.3699,-0.1864
8.783,27.3,33.32,-24.78,0.6163,0.364,-0.1698
8.799,30.24,33.25,-21.14,0.5856,0.3459,-0.1342
8.813,33.18,32.62,-18.27,0.569,0.3508,-0.1234
8.83,36.4,31.5,-15.19,0.5694,0.3381,-0.119
8.847,39.55,29.61,-13.58,0.5904,0.3176,-0.1322
8.864,42.14,27.16,-13.02,0.6539,0.2893,-0.1742
8.881,43.89,24.99,-10.92,0.7212,0.2869,-0.2547
8.899,44.94,22.19,-7.7,0.7676,0.3479,-0.2952
8.912,45.57,16.3799,-6.37,0.8642,0.3074,-0.3342
8.926,47.53,17.36,-5.95,0.9501,0.3211,-0.5216
8.943,47.18,13.79,-0.42,0.9828,0.3664,-0.5075
8.958,46.2,10.85,6.58,1.0833,0.3625,-0.5011
8.972,44.45,7.98,13.23,1.1277,0.3289,-0.5197
9.0,39.62,1.54,22.75,1.2019,0.2454,-0.5699
9.017,36.12,-1.82,27.86,1.1931,0.2078,-0.589
9.034,32.2,-4.41,33.04,1.1716,0.1546,-0.5997
9.051,27.23,-7.0,39.2,1.1853,0.0673,-0.5773
9.068,21.35,-10.43,46.55,1.1829,0.0107,-0.5592
9.082,15.33,-12.74,53.76,1.1702,-0.0312,-0.5524
9.1,6.23,-15.33,62.58,1.1097,-0.0912,-0.5016
9.118,-2.31,-18.27,71.54,1.0882,-0.14,-0.4201
9.135,-9.59,-20.58,75.74,1.1306,-0.1825,-0.325
9.153,-20.79,-26.18,75.88,1.1907,-0.1961,-0.2181
9.168,-27.93,-30.03,69.65,1.3073,-0.1781,-0.2166
9.185,-35.07,-33.32,60.76,1.3454,-0.0976,-0.2649
9.201,-40.53,-34.86,51.1699,1.341,-0.0678,-0.3015
9.217,-44.1699,-35.14,39.41,1.277,-0.0746,-0.2693
9.232,-48.44,-34.93,30.38,1.1389,-0.0839,-0.2254
9.248,-51.59,-33.11,22.12,1.0204,-0.0527,-0.2479
9.266,-54.04,-29.89,17.01,0.9462,0.0078,-0.2742
9.283,-54.67,-25.1299,15.61,0.7749,0.0712,-0.2659
9.299,-54.04,-19.95,17.29,0.6983,0.0922,-0.2132
9.317,-53.69,-15.33,18.1299,0.6714,0.0917,-0.1224
9.333,-52.15,-12.04,14.91,0.629,0.0658,-0.0839
9.351,-50.75,-8.1899,7.7,0.6026,0.0605,-0.0629
9.369,-48.79,-5.11,2.1,0.6124,0.0556,-0.0366
9.386,-46.69,-3.43,-6.23,0.7095,0.0366,-0.0361
9.403,-45.15,-2.45,-16.31,0.8305,0.0126,-0.0873
9.42,-43.47,-1.54,-30.31,0.9657,-0.0409,-0.1327
9.438,-42.14,-2.24,-40.53,1.0667,-0.0366,-0.1405
9.455,-41.02,-2.66,-48.58,1.1995,-0.0195,-0.1873
9.472,-39.97,-4.13,-55.51,1.2678,-0.0043,-0.1849
9.49,-38.5,-6.09,-60.83,1.3068,0.0385,-0.1927
9.507,-37.1,-7.28,-62.86,1.3117,0.0805,-0.221
9.523,-35.4199,-7.84,-63.42,1.2902,0.1,-0.2679
9.539,-33.46,-7.35,-62.79,1.2487,0.1161,-0.2952
9.556,-31.99,-6.79,-59.15,1.2312,0.099,-0.3181
9.574,-31.71,-5.95,-49.49,1.2053,0.0717,-0.3303
9.592,-33.81,-6.44,-34.44,1.2556,0.0453,-0.3064
9.608,-36.33,-7.91,-16.73,1.2531,0.0844,-0.282
9.624,-39.62,-9.9399,1.26,1.2097,0.1112,-0.2464
9.638,-41.93,-11.97,12.04,1.1624,0.1454,-0.242
9.656,-43.89,-14.07,23.59,1.0936,0.1634,-0.2571
9.673,-45.64,-15.68,28.21,0.972,0.202,-0.3181
9.691,-45.9199,-15.33,28.7,0.8437,0.2366,-0.3733
9.709,-45.0099,-13.37,26.25,0.6978,0.2557,-0.384
9.725,-44.24,-11.6899,22.82,0.627,0.263,-0.3786
9.742,-43.12,-9.45,19.32,0.5636,0.3123,-0.3664
9.758,-41.3,-6.79,17.36,0.4987,0.3498,-0.3542
9.776,-39.48,-3.64,15.96,0.4543,0.343,-0.3367
9.794,-38.64,-1.33,15.26,0.4421,0.2644,-0.3318
9.812,-39.34,1.12,15.54,0.4387,0.2015,-0.3445
9.827,-40.39,2.73,17.57,0.4562,0.1751,-0.3645
9.841,-42.35,4.13,21.42,0.4528,0.1878,-0.3801
9.858,-44.1,5.32,25.76,0.5045,0.1688,-0.4016
9.872,-45.43,6.3,26.88,0.5636,0.1176,-0.4401
9.89,-47.74,6.86,24.99,0.648,0.0634,-0.4528
9.906,-50.47,6.09,22.26,0.7632,-0.0122,-0.4962
9.923,-54.18,5.11,21.56,0.8242,-0.057,-0.5568
9.941,-57.96,3.71,26.25,0.9106,-0.0946,-0.5704
9.955,-65.1,1.4,35.21,1.0511,-0.1273,-0.5831
9.97,-71.54,-1.33,46.48,1.1204,-0.1434,-0.6002
9.987,-79.31,-4.34,59.36,1.1887,-0.1917,-0.5885
10.003,-87.71,-6.44,71.82,1.2063,-0.2552,-0.5314
10.019,-96.74,-9.24,82.74,1.2595,-0.3469,-0.4309
10.035,-105.56,-12.88,95.13,1.3112,-0.4226,-0.3108
10.05,-116.34,-16.45,106.19,1.3986,-0.4709,-0.2259
10.066,-125.65,-19.4599,118.37,1.442,-0.4923,-0.1966
10.084,-136.78,-21.28,124.74,1.4605,-0.4797,-0.2757
10.102,-144.48,-18.2,125.09,1.3893,-0.4504,-0.3591
10.12,-150.4299,-11.76,119.42,1.2805,-0.4172,-0.3757
10.137,-153.86,-2.8699,108.08,1.1546,-0.4089,-0.3337
10.155,-155.61,5.95,90.58,1.0394,-0.3825,-0.2976
10.171,-156.87,18.1299,75.6,0.9193,-0.3342,-0.3303
10.185,-156.66,31.99,67.13,0.8149,-0.282,-0.3381
10.199,-156.03,43.47,59.85,0.7461,-0.2342,-0.3098
10.213,-155.5399,53.62,54.88,0.6797,-0.2015,-0.2308
10.228,-154.56,62.37,52.43,0.6217,-0.1947,-0.1517
10.243,-153.9299,69.3,52.0099,0.5851,-0.1932,-0.0614
10.26,-151.97,75.11,50.19,0.6168,-0.181,-0.0073
10.276,-149.38,77.07,45.9199,0.7734,-0.1664,0.0122
10.305,-139.16,75.25,30.24,1.0867,-0.1083,-0.037
10.323,-134.4,70.49,19.53,1.177,-0.1249,-0.0165
10.339,-129.78,63.84,14.42,1.2566,-0.1517,0.0546
10.355,-127.12,53.76,11.6899,1.2912,-0.241,0.1688
10.373,-124.32,46.7599,10.99,1.2424,-0.2884,0.2727
10.391,-122.29,32.06,8.47,1.2204,-0.3523,0.4143
10.409,-118.23,21.2099,-1.26,1.2126,-0.4352,0.4172
10.425,-115.01,9.17,-14.7,1.2863,-0.3874,0.4221
10.44,-108.85,-1.12,-33.11,1.3117,-0.263,0.3884
10.456,-99.68,-12.25,-48.23,1.2824,-0.2098,0.3416
10.471,-91.42,-21.14,-63.63,1.217,-0.1478,0.3294
10.489,-81.9,-31.29,-75.81,1.1287,-0.0805,0.303
10.507,-64.05,-37.38,-93.87,1.0496,0.1029,0.2542
10.525,-44.66,-41.02,-115.57,0.9189,0.302,0.1068
10.541,-21.49,-41.79,-140.07,0.7578,0.3689,0.0029
10.557,3.15,-32.97,-163.24,0.8217,0.2806,-0.1098
10.575,23.1,-20.79,-180.39,0.8232,0.2981,-0.1956
10.59,36.19,-8.89,-171.08,0.85,0.3289,-0.2332
10.606,42.28,4.83,-136.36,0.8432,0.3498,-0.2664
10.624,43.19,17.85,-85.47,0.8232,0.3206,-0.2703
10.641,38.29,27.37,-23.59,0.8408,0.2518,-0.2688
10.655,32.48,33.6699,46.69,0.9106,0.1956,-0.2469
10.673,26.67,36.54,77.07,0.9662,0.18,-0.2664
10.688,24.5,37.94,92.96,0.8959,0.2171,-0.2928
10.705,25.27,38.99,92.19,0.8622,0.2684,-0.3308
10.723,27.51,39.34,74.2,0.8149,0.2908,-0.3298
10.736,29.96,39.13,59.78,0.8398,0.1776,-0.2903
10.751,29.12,38.29,42.77,0.813,0.0697,-0.261
10.769,27.23,37.1699,25.97,0.7529,0.0122,-0.2391
10.784,21.56,35.7,21.56,0.7076,0.037,-0.2288
10.801,15.82,34.44,25.27,0.7154,0.0717,-0.2537
10.817,7.91,32.55,34.5099,0.7871,0.0917,-0.2859
10.831,-0.28,28.91,42.21,0.8686,0.0902,-0.3245
10.846,-6.86,25.41,46.13,0.9496,0.0629,-0.3323
10.862,-20.51,6.79,46.34,0.8037,0.16,-0.4528
10.878,-19.11,14.63,43.54,1.1194,-0.0497,-0.3074
10.895,-23.1,8.68,34.93,1.4576,-0.0976,-0.3425
10.922,-34.09,-7.84,18.55,1.5298,-0.2132,-0.2849
10.939,-41.3,-17.22,12.04,1.5586,-0.3747,-0.2849
10.956,-48.79,-25.76,8.68,1.5381,-0.3093,-0.2459
10.971,-55.44,-32.9,7.77,1.4713,-0.3694,-0.2303
10.988,-64.33,-38.15,7.7,1.3698,-0.4601,-0.201
11.004,-73.78,-40.95,7.7,1.3205,-0.508,-0.2254
11.022,-82.18,-41.37,8.4,1.3346,-0.526,-0.243
11.04,-95.41,-40.39,8.89,1.4513,-0.5304,-0.2903
11.058,-107.24,-37.8,6.86,1.5816,-0.5338,-0.2762
11.076,-118.72,-33.25,6.37,1.5757,-0.464,-0.222
11.094,-129.64,-27.93,13.3,1.4825,-0.406,-0.1537
11.111,-142.38,-21.35,27.23,1.3005,-0.3279,-0.1083
11.127,-151.2,-13.02,41.58,1.1438,-0.3084,-0.0712
11.143,-159.0399,-5.81,49.84,0.9999,-0.2835,-0.0058
11.161,-164.99,3.5,52.5,0.7725,-0.222,0.0614
11.176,-167.37,10.15,52.64,0.6085,-0.1527,0.1337
11.19,-167.58,16.52,50.4,0.4958,-0.0941,0.1747
11.208,-165.62,22.19,41.58,0.4787,-0.0678,0.2366
11.226,-161.49,27.37,27.79,0.484,-0.0341,0.2039
11.243,-156.1,30.8,11.34,0.5636,0.0331,0.1995
11.259,-150.99,31.64,-5.88,0.6539,0.0522,0.2196
11.277,-145.39,30.73,-25.76,0.7105,0.0356,0.2269
11.295,-137.34,28.28,-42.07,0.8066,-0.0248,0.2391
11.311,-131.67,25.1299,-53.55,0.9062,-0.0453,0.2776
11.329,-125.58,19.39,-60.06,0.9476,-0.0351,0.3303
11.344,-121.1,15.33,-64.12,1.0262,-0.018,0.4001
11.362,-113.33,6.58,-69.65,1.1331,-0.0336,0.4797
11.378,-105.42,1.47,-76.0199,1.2292,-0.0629,0.5231
11.393,-97.3,-7.28,-82.25,1.2722,-0.0653,0.5246
11.411,-85.96,-13.51,-86.45,1.2024,-0.0414,0.5011
11.429,-75.25,-17.5,-88.06,1.1643,-0.0492,0.4636
11.445,-63.91,-18.69,-87.57,1.0487,-0.0312,0.3728
11.461,-51.03,-15.82,-86.5199,0.972,0.0536,0.2879
11.479,-37.45,-9.1,-85.33,0.9291,0.1517,0.2
11.494,-26.25,-1.47,-79.31,0.8676,0.1986,0.1698
11.511,-15.47,8.61,-61.81,0.8378,0.2654,0.1903
11.525,-7.84,16.94,-41.86,0.8574,0.324,0.2259
11.541,1.19,24.43,-22.89,0.8774,0.3757,0.2547
11.557,10.71,31.01,-7.14,0.9813,0.3943,0.2249
11.572,19.04,35.21,17.85,1.0531,0.3952,0.1522
11.588,26.88,38.22,2.31,1.1248,0.3679,0.0844
11.604,34.02,39.34,5.25,1.1238,0.3162,0.0107
11.622,38.5,39.69,11.55,1.1023,0.3132,-0.0195
11.64,43.89,38.57,19.53,1.0101,0.3581,-0.0497
11.656,48.16,37.1,23.73,0.9359,0.385,-0.0585
11.672,51.94,34.58,28.14,0.8774,0.4104,-0.0302
11.689,55.51,30.8,32.55,0.8471,0.4196,0.0141
11.705,58.8,25.9,34.09,0.8642,0.3874,0.0473
11.722,62.3,19.67,30.87,0.8808,0.3367,0.078
11.738,66.01,14.21,24.22,0.8993,0.3289,0.0678
11.754,69.86,7.21,16.94,0.9472,0.345,0.0263
11.769,73.08,1.75,10.71,0.9886,0.345,-0.0536
11.787,75.74,-5.53,6.16,1.0936,0.3786,-0.0761
11.803,77.63,-11.41,5.25,1.1116,0.4084,-0.1088
11.817,78.89,-16.3799,5.6,1.1121,0.4016,-0.1317
11.835,79.24,-22.9599,7.28,1.1209,0.3967,-0.1307
11.85,78.96,-27.86,9.52,1.118,0.4148,-0.1302
11.865,78.68,-32.34,11.34,1.1189,0.4343,-0.162
11.881,78.12,-36.61,11.4799,1.1404,0.4138,-0.1942
11.898,77.35,-40.6,10.57,1.2175,0.3938,-0.2166
11.912,76.3,-43.2599,9.45,1.2522,0.3904,-0.2488
11.926,74.97,-45.15,9.9399,1.2453,0.3879,-0.2591
11.944,72.94,-46.41,13.02,1.2302,0.3484,-0.2693
11.962,66.99,-47.25,17.22,1.1546,0.1903,-0.2708
11.979,62.09,-46.48,19.53,1.0696,0.0834,-0.2854
11.997,56.63,-44.38,21.2099,1.0501,0.0122,-0.2918
12.015,46.41,-40.53,24.64,1.0057,-0.0366,-0.2928
12.031,37.66,-36.12,27.3,1.0316,-0.0795,-0.2664
12.046,30.17,-30.24,25.55,1.0784,-0.0946,-0.2313
12.061,20.86,-23.94,21.49,1.0692,-0.0756,-0.2396
12.079,11.9,-12.53,16.17,1.034,-0.0356,-0.2976
12.097,2.59,-1.33,14.63,0.9994,0.0048,-0.2708
12.113,-4.55,8.61,17.92,0.9208,0.0473,-0.1956
12.129,-11.9,17.01,20.86,0.8042,0.039,-0.1342
12.147,-17.15,25.97,21.84,0.7603,0.0351,-0.0736
12.165,-22.82,32.48,22.54,0.6866,0.0473,0.0209
12.181,-25.69,37.73,27.09,0.5919,0.0873,0.0668
12.199,-26.46,42.07,33.95,0.5699,0.202,0.1073
12.214,-24.43,45.36,33.46,0.4836,0.2274,0.1146
12.232,-19.4599,49.91,21.77,0.4836,0.2074,0.1947
12.247,-13.93,53.13,7.98,0.4562,0.2078,0.2537
12.263,-7.42,57.05,-6.02,0.4157,0.2225,0.3054
12.278,-2.1,60.55,-20.3,0.4494,0.181,0.3845
12.294,3.36,64.54,-28.7,0.4528,0.1844,0.4362
12.308,8.05,68.32,-32.41,0.4811,0.1815,0.487
12.322,11.41,72.5199,-33.53,0.5763,0.1688,0.5563
12.336,15.96,76.51,-34.3,0.6597,0.1283,0.6417
12.35,20.23,80.15,-35.28,0.7603,0.0893,0.7515
12.368,24.08,84.49,-33.88,0.8281,0.0614,0.8256
12.386,31.36,88.13,-29.26,0.8935,-0.0063,0.9291
12.404,37.31,93.5899,-24.08,0.995,-0.0692,1.1199
12.421,42.07,99.26,-17.08,1.0535,-0.0946,1.0277
12.439,47.39,106.05,-2.38,1.0853,-0.1161,1.074
12.456,49.21,104.0899,14.77,1.0238,-0.1644,1.0335
12.473,52.36,110.6,30.8,0.9628,-0.242,0.9828
12.489,55.3,115.57,46.13,0.9677,-0.2557,1.0043
12.507,57.75,121.59,62.86,1.0008,-0.2425,1.0013
12.523,60.2,125.58,80.99,1.0911,-0.1883,1.0374
12.539,63.0,127.82,97.37,1.1838,-0.1107,1.0609
12.555,67.13,126.84,114.1,1.2966,-0.0453,1.075
12.571,71.33,117.88,121.31,1.3278,-0.061,1.0311
12.587,77.35,110.04,119.49,1.2175,-0.0858,0.9486
12.605,81.9,104.72,115.5,1.094,-0.1015,0.8774
12.621,89.18,97.93,112.35,0.9828,-0.1176,0.7495
12.639,94.64,91.7699,110.67,0.8774,-0.1254,0.6358
12.657,100.03,87.08,112.77,0.7632,-0.0897,0.5045
12.672,103.25,81.62,115.08,0.7573,-0.0727,0.4816
12.69,105.42,75.25,115.15,0.7481,-0.0566,0.4367
12.705,108.5,69.93,113.4,0.7412,-0.0478,0.4026
12.721,110.11,62.58,109.83,0.7803,-0.0483,0.3908
12.739,111.51,53.76,101.71,0.8281,-0.0356,0.362
12.754,112.28,48.09,91.42,0.8779,-0.0893,0.3611
12.772,112.49,38.64,72.24,0.9247,-0.1137,0.3479
12.785,111.86,32.2,60.41,0.976,-0.08,0.3513
12.799,111.16,25.41,48.3,1.0535,-0.0629,0.3396
12.814,108.15,19.74,38.43,1.137,-0.0839,0.305
12.828,104.23,12.74,28.91,1.238,-0.1288,0.2688
12.845,97.44,8.12,18.1299,1.2814,-0.1546,0.2215
12.859,90.23,2.17,11.2,1.3644,-0.1556,0.2059
12.875,81.48,-2.45,6.58,1.4313,-0.1546,0.1942
12.888,54.11,-7.35,4.69,1.5298,-0.1586,0.2147
12.904,59.78,-12.88,3.99,1.5708,-0.2122,0.2381
12.919,48.09,-18.9,3.64,1.646,-0.301,0.2449
12.934,35.84,-26.81,3.36,1.6845,-0.3674,0.2498
12.948,22.61,-33.25,4.9,1.6962,-0.4279,0.2845
12.977,-5.95,-47.6699,9.1,1.8192,-0.5289,0.405
12.991,-22.61,-59.15,10.57,1.725,-0.4504,0.3703
13.006,-35.56,-68.6,10.71,1.6962,-0.3806,0.3967
13.022,-49.4199,-71.96,5.39,1.7475,-0.3196,0.5392
13.039,-59.22,-70.7699,-11.13,1.848,-0.3508,0.8008
13.057,-72.8,-103.95,-33.6699,1.9944,-0.447,0.996
13.073,-84.0,-122.22,-58.59,1.8592,-0.5309,1.0233
13.091,-93.24,-132.16,-80.15,1.7748,-0.5929,1.0252
13.109,-109.27,-149.24,-89.6,1.5952,-0.6871,1.0028
13.125,-119.21,-156.59,-91.0,1.4015,-0.8744,0.9491
13.14,-129.5,-161.84,-86.45,1.1873,-0.7607,0.9013
13.158,-143.57,-164.2899,-77.35,1.0701,-0.7271,0.8715
13.176,-155.4,-164.2899,-64.54,0.9598,-0.6026,0.8496
13.193,-164.22,-162.33,-55.65,0.8876,-0.5455,0.8525
13.211,-174.86,-158.83,-53.34,0.7442,-0.5089,0.8657
13.227,-181.37,-154.77,-57.68,0.6592,-0.488,0.9096
13.242,-184.73,-151.34,-64.96,0.5899,-0.4338,0.9559
13.259,-187.0399,-146.7899,-75.46,0.4694,-0.4245,0.9686
13.277,-189.21,-140.56,-83.93,0.4113,-0.4123,0.9828
13.294,-191.66,-134.05,-85.12,0.3581,-0.3411,0.9555
13.31,-194.25,-126.63,-79.8,0.3498,-0.2391,0.9369
13.327,-196.14,-117.53,-73.71,0.3474,-0.18,0.8847
13.343,-195.9299,-106.26,-72.24,0.3352,-0.1307,0.8408
13.357,-195.37,-96.18,-77.63,0.3684,-0.1112,0.8056
13.373,-189.63,-84.14,-90.0199,0.4138,-0.0419,0.7832
13.391,-179.76,-70.7699,-107.03,0.4733,0.038,0.7134
13.408,-172.9,-63.14,-129.92,0.6275,0.1737,0.5807
13.425,-165.41,-54.18,-137.83,0.7876,0.2952,0.4382
13.44,-159.67,-45.22,-130.34,0.9862,0.4196,0.4279
13.455,-155.6799,-39.41,-114.1,0.9516,0.4079,0.447
13.471,-153.51,-33.11,-90.23,0.9584,0.3957,0.4523
13.487,-151.55,-25.48,-68.81,0.8759,0.4357,0.4196
13.505,-146.65,-15.12,-45.5,0.7969,0.5119,0.4016
13.519,-140.49,-7.28,-34.93,0.7798,0.5299,0.3957
13.537,-131.0399,0.63,-27.37,0.8696,0.5514,0.4084
13.553,-124.11,4.62,-21.91,1.0228,0.6119,0.4401
13.57,-113.96,6.79,-17.08,1.1243,0.6524,0.4655
13.586,-104.72,6.58,-16.17,1.1692,0.5914,0.4367
13.603,-94.85,6.09,-18.41,1.117,0.5753,0.386
13.621,-82.67,5.53,-22.82,1.0018,0.5963,0.3391
13.639,-69.0199,6.16,-27.58,0.874,0.6231,0.2674
13.656,-59.01,9.31,-29.82,0.6763,0.7476,0.122
13.672,-44.8,10.64,-30.66,0.6109,0.7739,0.0897
13.688,-28.84,15.54,-31.64,0.5148,0.8344,0.059
13.702,-15.82,17.57,-35.63,0.4743,0.8339,0.099
13.717,-5.25,18.2,-44.31,0.4133,0.79,0.099
13.733,6.86,21.56,-55.37,0.3728,0.7632,0.0697
13.751,18.06,22.61,-59.99,0.3884,0.7271,0.0883
13.768,16.45,18.27,-40.25,0.3211,0.6075,0.0273
13.784,18.48,15.4,-23.8,0.6192,0.5914,0.1522
13.8,23.66,12.74,-7.7,0.6114,0.6422,0.1922
13.816,27.51,11.55,5.95,0.6353,0.5211,0.2274
13.833,21.7,2.94,19.81,0.4562,0.1742,0.142
13.846,17.08,2.66,23.73,0.7066,0.3577,0.1273
13.864,7.91,-0.84,24.85,0.5851,0.4792,0.1961
13.882,8.26,-10.08,22.68,0.752,0.9696,-0.0156
13.897,12.18,-16.87,10.64,0.8998,0.7798,-0.0517
13.913,12.04,-25.9,-7.07,1.0204,0.6378,-0.0844
13.927,6.72,-36.47,-19.11,1.2712,0.5006,-0.0634
13.943,-6.02,-50.82,-24.36,1.3883,0.4801,-0.0517
13.957,-16.52,-64.96,-21.98,1.3698,0.6109,-0.0614
13.973,-27.16,-79.5899,-18.83,1.3463,0.6436,-0.0692
13.987,-35.0,-91.07,-20.44,1.3566,0.7544,0.0546
14.002,-39.7599,-101.57,-27.65,1.28,0.7446,0.1234
14.018,-42.7,-112.21,-39.69,1.2609,0.5963,0.0961
14.036,-48.5099,-122.57,-49.98,1.2829,0.4894,0.0234
14.054,-56.63,-136.5,-55.23,1.2605,0.6192,-0.0195
14.068,-57.12,-142.8,-60.55,1.3215,0.6456,0.0175
14.083,-56.63,-151.69,-72.8,1.3356,0.6226,0.0097
14.098,-57.19,-153.16,-75.6,1.199,0.6607,-0.039
14.116,-54.88,-166.67,-70.28,1.2336,0.6109,-0.0702
14.131,-68.81,-175.84,-55.58,0.9681,0.4831,0.0507
14.145,-72.73,-171.08,-33.81,0.5143,0.2522,0.0717
14.163,-84.28,-168.0,6.44,0.3708,0.2415,0.0414
14.181,-88.41,-166.53,50.75,0.2083,0.2069,0.0946
14.197,-98.0,-155.5399,82.53,0.0805,0.262,0.2444
14.212,-105.0,-151.76,111.51,0.139,0.2669,0.1629
14.228,-110.95,-150.01,128.03,0.2527,0.3459,0.1259
14.242,-114.87,-148.5399,138.46,0.3606,0.3894,0.1063
14.258,-119.21,-148.61,144.2,0.4592,0.4289,0.1273
14.272,-120.75,-149.87,146.16,0.5377,0.5158,0.1259
14.287,-121.94,-150.71,148.26,0.5846,0.5675,0.1517
14.302,-122.08,-154.91,151.13,0.6749,0.6143,0.159
14.318,-122.29,-158.55,157.15,0.7671,0.6319,0.1703
14.336,-123.41,-162.4,167.51,0.8642,0.629,0.1903
14.354,-126.42,-169.75,182.49,0.9389,0.607,0.18
14.368,-125.86,-173.74,193.76,0.9398,0.6119,0.2064
14.385,-121.87,-176.96,203.42,0.9686,0.5494,0.1351
14.401,-137.83,-182.77,204.6799,1.1243,0.5246,-0.0639
14.416,-140.0,-187.32,200.13,1.2219,0.6163,-0.0839
14.434,-137.83,-193.76,189.7,1.2585,0.7095,-0.1576
14.452,-131.11,-196.35,175.35,1.1848,0.7373,-0.3308
14.467,-126.21,-196.42,165.55,1.0916,0.6139,-0.466
14.483,-121.52,-193.48,156.45,0.9964,0.5455,-0.6104
14.501,-115.78,-185.92,144.41,0.8701,0.4928,-0.7359
14.519,-110.6,-177.17,127.05,0.833,0.3772,-0.9086
14.536,-102.62,-167.7899,102.55,0.7646,0.406,-1.0535
14.554,-91.63,-157.57,74.3399,0.6426,0.4933,-1.1136
14.57,-77.07,-142.31,46.06,0.5704,0.5255,-1.1668
14.587,-60.06,-128.66,22.75,0.628,0.4787,-1.1677
14.603,-50.12,-120.4,13.65,0.708,0.3172,-1.1877
14.617,-47.74,-112.35,18.83,0.7407,0.1912,-1.1224
14.633,-49.21,-101.29,41.93,0.6407,0.1464,-1.0135
14.651,-54.18,-88.13,73.15,0.5758,0.1434,-0.8432
14.668,-56.98,-74.13,101.64,0.5182,0.2044,-0.7744
14.685,-57.61,-57.33,123.97,0.4406,0.2469,-0.6558
14.7,-54.46,-46.06,130.97,0.4611,0.2732,-0.5709
14.715,-48.44,-32.13,130.41,0.4069,0.2679,-0.5948
14.73,-42.84,-20.58,124.39,0.3889,0.2547,-0.5494
14.745,-34.3,-5.53,116.9,0.342,0.3455,-0.5885
14.761,-22.9599,6.72,108.43,0.3142,0.3333,-0.6646
14.779,-14.63,25.97,101.99,0.3172,0.2737,-0.6817
14.797,-2.8,43.12,105.49,0.2888,0.1908,-0.8154
14.815,3.01,64.4,112.49,0.2444,0.162,-0.8969
14.833,11.83,82.46,115.29,0.3054,0.1537,-1.0101
14.85,20.02,98.8399,110.04,0.3782,0.0639,-1.0492
14.865,27.09,113.82,95.13,0.3767,0.0844,-1.0018
14.88,36.61,126.84,76.0899,0.3381,0.2005,-0.9418
14.895,50.89,138.25,50.05,0.4026,0.2322,-0.8701
14.911,63.98,148.89,9.87,0.4923,0.2215,-0.7915
14.928,76.72,158.48,-42.98,0.4679,0.1122,-0.7198
14.945,87.57,167.44,-123.62,0.4177,0.2044,-0.6563
14.962,104.79,177.24,-239.96,0.3699,0.4196,-0.5709
14.978,117.32,184.66,-388.71,0.4616,0.5758,-0.5392
14.996,120.82,187.39,-550.9,0.5172,0.4801,-0.5368
15.014,97.58,183.05,-724.01,0.3874,0.2161,-0.5499
15.029,69.37,165.83,-834.33,0.2088,0.3728,-0.4631
15.045,23.8,120.33,-940.94,0.1898,0.6378,-0.508
15.06,-4.83,97.0199,-1007.23,-0.1141,0.935,-0.4318
15.075,-12.18,54.67,-1048.11,-0.1649,1.1999,-0.3108
15.088,-13.23,12.11,-1068.0601,-0.1493,1.4313,-0.3406
15.102,0.07,-28.77,-1058.33,0.0312,1.7177,-0.4509
15.116,27.16,-69.44,-1007.65,0.3928,1.8163,-0.2479
15.134,50.75,-120.19,-976.29,0.6129,1.745,-0.0727
15.151,103.32,-143.57,-941.85,-0.0673,1.0531,-0.1878
15.166,141.4,-160.51,-923.09,0.0902,0.667,-0.0048
15.182,185.64,-148.89,-891.94,-0.0888,1.098,-0.1546
15.211,239.61,-79.24,-850.22,-1.4337,-0.6353,-0.1346
15.224,233.94,-48.37,-833.63,-0.9842,-0.9916,-0.0448
15.238,214.76,-24.64,-816.4099,-0.6139,-1.1365,-0.017
15.253,193.76,-11.76,-800.52,-0.1883,-0.9545,0.1356
15.268,172.27,-8.1899,-776.7199,0.8047,-0.3645,0.343
15.283,156.87,12.32,-750.33,-0.1058,-0.3084,0.1683
15.298,155.12,14.21,-713.7199,-1.6411,-0.6304,1.034
15.313,118.65,3.43,-666.05,1.0184,-0.6236,0.8003
15.328,102.13,-10.71,-618.94,0.9979,-0.8457,0.7666
15.343,83.58,-10.99,-560.63,1.3947,-0.9989,0.8579
15.36,49.21,-79.73,-474.46,2.0793,-0.8169,0.6573
15.375,34.58,-107.45,-374.78,1.3624,-0.567,0.6461
15.39,19.4599,-132.09,-265.51,1.4957,-1.0892,0.3957
15.42,-55.3,-151.2,-37.87,1.2722,-1.1658,0.0566
15.435,-92.26,-155.47,37.87,1.0179,-1.3132,-0.1161
15.453,-115.85,-145.46,110.6,0.9779,-1.2263,-0.1478
15.471,-145.46,-133.84,137.34,1.075,-0.8598,-0.1293
15.488,-147.7,-125.79,120.05,1.3483,-0.7134,-0.2532
15.506,-141.19,-122.64,58.03,1.4674,-0.7539,-0.366
15.523,-127.54,-118.09,-4.55,1.3595,-0.7598,-0.4465
15.54,-111.58,-112.42,-51.1,1.219,-0.6758,-0.5153
15.555,-99.26,-105.7,-65.87,1.0682,-0.5919,-0.4762
15.573,-92.05,-96.67,-55.72,0.9964,-0.5426,-0.4411
15.591,-82.32,-82.04,-31.85,0.9223,-0.4538,-0.2971
15.608,-75.46,-70.28,-6.79,0.8237,-0.3254,-0.2186
15.623,-68.74,-59.99,11.9,0.7261,-0.1317,-0.162
15.639,-59.15,-47.53,20.86,0.6441,-0.181,-0.1395
15.654,-49.0,-37.94,23.66,0.5694,-0.1068,-0.1054
15.672,-35.63,-24.92,17.5,0.5387,-0.0985,-0.1195
15.688,-21.91,-16.24,5.7399,0.5177,-0.0893,-0.1058
15.705,-9.66,-7.77,-2.66,0.549,-0.1117,-0.1346
15.72,-1.47,-1.54,-6.51,0.5709,-0.179,-0.159
15.735,5.25,2.38,-7.56,0.5763,-0.2191,-0.1995
15.75,7.07,4.55,-5.88,0.5729,-0.3562,-0.242
15.766,7.07,6.58,2.17,0.61,-0.3801,-0.2771
15.782,3.85,8.47,13.02,0.6119,-0.4631,-0.3918
15.797,-0.14,9.38,22.33,0.5743,-0.505,-0.4435
15.81,-4.2,8.82,31.71,0.4753,-0.5285,-0.4699
15.825,-9.03,8.82,40.32,0.6475,-0.4538,-0.4777
15.838,-16.94,3.01,41.58,0.7359,-0.688,-0.6544
15.853,-28.0,-7.21,42.35,1.0892,-0.8803,-0.9086
15.867,-39.69,-14.91,40.88,1.097,-0.8349,-0.9862
15.882,-47.25,-22.75,34.86,0.9945,-0.7939,-0.7339
15.898,-58.17,-29.89,28.84,0.6988,-0.7022,-0.6187
15.912,-68.32,-35.21,25.1299,0.7564,-0.671,-0.6036
15.928,-72.87,-38.43,18.55,0.7856,-0.6358,-0.7154
15.943,-76.37,-39.7599,8.05,0.7969,-0.6197,-0.7847
15.958,-75.67,-38.08,-5.18,0.7198,-0.5651,-0.8437
15.973,-72.45,-32.9,-15.54,0.5934,-0.5221,-0.8896
15.987,-68.95,-24.99,-17.64,0.4977,-0.4675,-0.8764
16.005,-66.15,-14.84,-6.09,0.4421,-0.4406,-0.8754
16.034,-63.14,7.21,32.13,0.6544,-0.4528,-0.9135
16.052,-62.51,14.91,63.77,0.7217,-0.4333,-0.853
16.069,-61.95,20.86,88.48,0.7939,-0.4211,-0.791
16.086,-62.44,24.99,124.74,0.8315,-0.4289,-0.6051
16.102,-62.93,26.74,154.35,0.85,-0.3728,-0.4875
16.117,-63.21,28.28,181.86,0.7939,-0.4392,-0.3562
16.132,-63.98,30.59,195.23,0.7402,-0.5558,-0.2318
16.147,-64.68,33.25,200.41,0.6495,-0.6456,-0.1254
16.162,-65.73,36.75,200.83,0.5987,-0.7622,-0.039
16.177,-69.0899,40.88,205.31,0.6021,-0.8383,-0.0492
16.192,-73.36,46.48,217.0,0.6236,-0.9359,-0.04
16.208,-80.71,50.68,235.13,0.6412,-1.097,-0.0087
16.222,-89.53,56.56,254.94,0.6143,-1.2424,-0.0229
16.238,-101.5,58.24,280.28,0.6348,-1.361,0.0014
16.256,-122.08,62.51,306.81,0.6163,-1.402,-0.0785
16.273,-137.13,67.2,322.77,0.4923,-1.3873,-0.1346
16.29,-149.59,71.89,332.29,0.3928,-1.3254,-0.2693
16.305,-154.98,79.24,332.5,0.363,-1.3459,-0.3372
16.322,-161.28,84.07,328.5799,0.3269,-1.1453,-0.467
16.34,-157.85,89.88,330.19,0.222,-0.7817,-0.6622
16.357,-148.4,96.25,329.98,0.1566,-0.6363,-0.7041
16.372,-140.21,99.26,324.1,0.0995,-0.5787,-0.7988
16.388,-127.89,101.43,322.07,0.1986,-0.3777,-0.9877
16.406,-120.26,98.63,321.3,0.3952,-0.3342,-0.9315
16.424,-102.76,95.62,315.91,0.2557,-0.3577,-1.0321
16.442,-91.21,86.8,307.02,0.4684,-0.3279,-0.9535
16.46,-82.04,76.72,290.64,0.3274,-0.1873,-1.0003
16.477,-65.24,67.62,261.1,0.71,-0.1478,-0.9101
16.492,-53.41,52.92,220.15,0.6417,-0.2083,-0.8413
16.507,-39.55,38.9199,163.73,0.5934,-0.1644,-0.8676
16.523,-26.67,22.19,88.13,0.7705,-0.264,-0.9681
16.538,-13.79,3.71,22.05,0.7886,-0.3581,-1.1067
16.556,-8.26,-11.55,-55.72,0.7446,-0.5158,-1.2043
16.574,-1.4,-25.2,-102.2699,0.6114,-0.5226,-1.2497
16.592,-0.21,-34.5099,-125.51,0.5436,-0.484,-1.1916
16.61,-0.49,-42.91,-128.45,0.4138,-0.4323,-1.0418
16.627,-2.45,-48.09,-119.0,0.2884,-0.404,-0.9457
16.643,-4.27,-50.96,-106.68,0.2074,-0.385,-0.831
16.661,-5.32,-54.25,-97.86,0.1483,-0.3699,-0.6944
16.678,-5.32,-57.54,-93.87,0.1298,-0.3723,-0.6265
16.695,-4.48,-60.13,-91.21,0.1327,-0.343,-0.6026
16.71,-4.34,-63.56,-89.18,0.1132,-0.3581,-0.6158
16.725,-2.45,-66.01,-85.4,0.1141,-0.2971,-0.6578
16.741,1.33,-64.82,-83.72,-0.1029,-0.2503,-0.5777
16.757,4.62,-69.65,-85.4,0.2,-0.2337,-0.7329
16.771,7.35,-69.79,-85.89,0.1351,-0.2025,-0.7622
16.788,13.72,-69.93,-80.99,0.0678,-0.1571,-0.7495
16.806,17.78,-71.68,-76.51,0.0156,-0.2161,-0.769
16.823,24.29,-70.42,-74.69,0.0468,-0.2161,-0.7681
16.84,31.15,-70.07,-77.56,0.0292,-0.2196,-0.7788
16.857,38.5,-65.03,-95.06,0.0458,-0.3908,-0.8188
16.874,49.28,-69.0899,-115.85,0.1952,-0.3572,-0.9325
16.892,48.86,-66.92,-136.92,0.1908,-0.3357,-1.0311
16.91,55.37,-63.7,-153.09,0.2976,-0.3625,-1.1682
16.923,58.8,-61.95,-154.77,0.1566,-0.404,-1.0243
16.937,60.9,-56.07,-150.57,-0.037,-0.3333,-0.9964
16.954,62.58,-49.84,-140.77,0.0961,-0.3664,-1.0853
16.969,63.28,-45.57,-131.74,0.1,-0.4997,-1.0413
16.987,62.09,-39.69,-122.78,0.1283,-0.6085,-1.0911
17.005,57.19,-30.03,-114.52,0.0649,-0.7124,-1.1541
17.023,51.52,-19.4599,-102.3399,0.0458,-0.7359,-1.0994
17.04,45.64,-14.21,-84.49,0.2581,-0.7222,-1.0247
17.055,39.9,-12.04,-69.86,0.3318,-0.7876,-0.934
17.071,33.46,-11.76,-58.45,0.343,-0.8647,-0.8881
17.089,27.51,-10.71,-52.92,0.2903,-0.912,-0.8217
17.102,19.11,-9.24,-52.64,0.2381,-0.9652,-0.7061
17.116,13.37,-9.03,-50.68,0.2215,-0.9247,-0.589
17.132,7.0,-9.52,-44.24,0.2259,-0.8671,-0.4787
17.148,0.0,-10.64,-31.22,0.2103,-0.7734,-0.4162
17.179,-7.84,-10.01,-4.41,0.0854,-0.6592,-0.3777
17.192,-10.85,-9.03,5.88,0.0546,-0.6461,-0.3445
17.21,-13.37,-7.63,16.31,0.0268,-0.6148,-0.3259
17.226,-15.19,-6.3,24.43,0.0302,-0.6065,-0.3601
17.244,-16.3799,-4.34,31.01,-0.0136,-0.5738,-0.4143
17.261,-16.45,-1.75,35.14,-0.0605,-0.5597,-0.4528
17.277,-15.68,1.26,36.61,-0.0912,-0.526,-0.4836
17.292,64.47,69.58,23.52,1.4513,-0.2693,-1.2936
17.31,-7.98,0.35,29.4,-0.3235,-0.6236,-0.0361
17.325,-11.34,9.24,25.62,-0.1302,-0.5094,-0.6041
17.343,-4.48,6.93,19.18,-0.0912,-0.4626,-0.5895
17.361,-0.77,3.22,13.09,-0.179,-0.5353,-0.6817
17.378,7.28,8.4,4.34,-0.0058,-0.6304,-0.8032
17.392,-1.82,-9.45,-2.59,-0.4084,-0.6885,-0.6514
17.407,-0.63,2.66,-5.6,-0.1288,-0.7359,-0.7715
17.422,-1.33,7.0,-4.06,0.0219,-0.7617,-0.9306
17.437,-4.41,6.02,1.12,0.0927,-0.7564,-0.9818
17.452,-5.6,3.78,6.37,0.1527,-0.7432,-1.034
17.467,-7.0,1.19,10.36,0.1981,-0.7456,-1.0814
17.483,-7.84,-1.4,10.71,0.182,-0.752,-1.1306
17.501,3.85,-10.08,8.54,0.0624,-0.7124,-1.1453
17.515,4.06,-7.28,5.18,0.2957,-0.7115,-1.1585
17.529,-6.79,-10.29,-2.52,0.2293,-0.7632,-1.179
17.546,-7.7,-16.59,-10.15,0.3503,-0.7944,-1.1897
17.561,-3.71,-21.14,-14.7,0.3689,-0.7915,-1.1712
17.579,2.94,-23.1,-19.11,0.3538,-0.7334,-1.1004
17.593,-2.66,-25.69,-24.85,0.2952,-0.5036,-0.9823
17.61,-11.97,-27.65,-31.64,0.2488,-0.589,-0.8954
17.624,-13.72,-28.21,-35.28,0.2303,-0.607,-0.8349
17.639,-11.76,-27.93,-36.61,0.1517,-0.6041,-0.7524
17.669,-12.04,-21.84,-34.93,0.0946,-0.5382,-0.547
17.687,1.12,-25.83,-30.31,0.1249,-0.4928,-0.4621
17.705,20.16,-27.23,-24.7099,0.0771,-0.4631,-0.4152
17.722,20.86,-23.31,-21.77,0.0536,-0.4572,-0.3977
17.737,19.67,-20.23,-20.09,0.0429,-0.4426,-0.3977
17.752,16.59,-17.36,-17.92,0.0185,-0.4372,-0.3986
17.767,22.12,-11.2,-12.39,0.0214,-0.446,-0.4094
17.783,20.93,-9.45,-5.39,0.0156,-0.4997,-0.4479
17.799,102.62,33.81,7.56,0.323,-0.2581,-0.4684
17.815,40.81,1.61,5.7399,-0.0419,-0.5738,-0.4596
17.828,38.0099,5.95,5.7399,0.0692,-0.6031,-0.6505
17.842,23.66,-6.86,2.73,-0.0492,-0.6553,-0.5148
17.86,22.75,6.51,7.49,0.0873,-0.6568,-0.7227
17.878,52.71,23.31,16.45,0.1629,-0.6792,-0.7412
17.896,9.17,25.97,12.81,0.5363,-0.5358,-1.484
17.912,-21.42,-4.62,16.03,0.2298,-0.7754,-0.7827
17.926,-7.77,9.38,16.8,0.2376,-0.7856,-0.8803
17.942,0.7,21.49,19.4599,0.2625,-0.8784,-0.8471
17.96,18.41,34.5099,28.84,0.2532,-0.8876,-0.8569
17.978,26.53,43.75,36.47,0.2571,-0.9179,-0.9057
17.994,30.38,47.39,37.66,0.283,-0.9359,-0.9979
18.012,25.69,55.02,34.02,0.3498,-0.9691,-1.2336
18.03,10.08,55.79,30.8,0.3508,-0.9184,-1.1277
18.046,-1.33,63.84,37.24,0.3738,-0.8593,-1.0667
18.064,-7.63,75.46,56.63,0.3884,-0.7871,-0.9076
18.082,-11.62,77.98,81.76,0.363,-0.7232,-0.7734
18.098,-7.84,67.97,103.25,0.3503,-0.6851,-0.6875
18.114,-6.37,69.86,112.14,0.283,-0.7344,-0.6968
18.132,-7.42,72.38,107.52,0.2127,-0.7446,-0.711
18.15,-3.22,50.89,93.87,0.1176,-0.689,-0.6246
18.167,-9.03,28.63,90.16,0.0844,-0.5826,-0.5426
18.182,-1.54,37.87,84.91,-0.0185,-0.4943,-0.5397
18.199,0.28,51.24,83.79,-0.0341,-0.4221,-0.5158
18.217,2.24,52.71,84.63,-0.0697,-0.4421,-0.4914
18.232,3.85,54.81,86.17,-0.0697,-0.4099,-0.4792
18.248,8.82,60.41,87.99,-0.0624,-0.3923,-0.4543
18.264,10.92,66.15,88.69,-0.079,-0.4006,-0.4826
18.278,11.41,61.46,89.88,-0.0858,-0.4509,-0.4923
18.296,13.44,62.44,91.7,-0.0688,-0.5206,-0.5231
18.314,12.39,47.04,88.83,-0.1107,-0.548,-0.5729
18.33,7.77,32.97,77.0,-0.1771,-0.5416,-0.6426
18.346,8.68,28.14,60.06,-0.2044,-0.5255,-0.6397
18.364,3.85,15.82,45.08,-0.221,-0.609,-0.6675
18.382,9.24,6.65,41.02,-0.0697,-0.7632,-0.791
18.4,5.67,-4.2,42.56,-0.0561,-0.8247,-0.8632
18.416,5.53,9.1,36.89,-0.0883,-0.81,-0.892
18.433,5.04,14.21,30.31,-0.0663,-0.7837,-0.9598
18.45,-0.49,10.64,25.69,-0.08,-0.7773,-1.0731
18.466,-2.52,-0.91,20.79,-0.0419,-0.7949,-1.155
18.484,-3.01,-11.9,8.12,-0.0122,-0.8374,-1.1926
18.502,-6.16,-20.86,-8.47,0.0156,-0.7715,-1.3254
18.518,-35.84,-39.06,-17.92,0.0824,-0.8774,-1.3703
18.534,-27.72,-48.72,-27.58,0.1122,-0.9501,-1.3595
18.55,-19.18,-44.87,-32.55,0.0897,-0.8954,-1.3083
18.567,-9.87,-38.43,-31.01,0.0644,-0.8017,-1.2068
18.583,-10.43,-43.4,-17.92,0.0068,-0.6954,-1.0072
18.598,-8.12,-44.38,-4.9,-0.0092,-0.6505,-0.7851
18.615,-8.33,-44.94,4.62,-0.0375,-0.5743,-0.6246
18.63,-17.08,-49.28,1.26,-0.0849,-0.484,-0.5206
18.646,-25.9,-50.05,-11.97,-0.098,-0.4045,-0.4069
18.664,-29.82,-33.81,-35.91,-0.1098,-0.3703,-0.3533
18.682,13.37,-15.54,-48.3,-0.0561,-0.5089,-0.202
18.7,24.5,-7.7,-43.12,-0.0605,-0.525,-0.2425
18.718,37.45,-3.29,-35.56,-0.0907,-0.4679,-0.3938
18.733,41.93,-0.7,-30.38,-0.0922,-0.4518,-0.4723
18.751,46.34,3.36,-23.31,-0.12,-0.4811,-0.5211
18.77,49.35,4.62,-4.55,-0.1073,-0.5665,-0.586
18.787,49.91,4.55,15.89,-0.0932,-0.6104,-0.6231
18.803,51.45,6.58,27.65,-0.0858,-0.5919,-0.6319
18.821,48.3,10.29,22.54,-0.0936,-0.61,-0.7036
18.838,41.72,14.07,12.32,-0.0873,-0.6534,-0.8003
18.851,38.08,17.36,6.3,-0.0551,-0.7149,-0.8418
18.867,32.34,20.86,2.66,-0.0644,-0.7627,-0.8876
18.88,27.09,23.8,1.89,-0.0566,-0.8017,-0.9081
18.897,20.3,26.04,3.78,-0.0595,-0.811,-0.892
18.911,13.44,27.93,8.47,-0.1063,-0.874,-0.8213
18.926,7.77,29.26,14.91,-0.1073,-0.9232,-0.7905
18.954,-2.24,28.7,23.59,-0.0024,-0.9311,-0.8091
18.97,-7.63,26.53,25.97,0.0546,-0.9028,-0.7915
18.983,-13.02,23.3799,29.05,0.1078,-0.8818,-0.7773
18.997,-17.5,20.23,34.5099,0.1527,-0.8813,-0.7715
19.015,-22.68,17.08,39.13,0.1712,-0.9315,-0.77
19.03,-28.77,16.1,41.86,0.162,-0.9594,-0.7412
19.046,-35.0,16.8,45.36,0.1454,-0.9193,-0.6836
19.061,-40.39,19.04,48.72,0.1063,-0.8549,-0.629
19.076,-43.2599,23.31,50.05,0.038,-0.7832,-0.5968
19.104,-42.0,41.65,42.14,-0.0668,-0.6763,-0.5734
19.122,-30.45,66.5,30.73,-0.1,-0.6344,-0.6007
19.14,-55.51,142.1,18.76,-0.1786,-0.5777,-0.5651
19.156,-46.55,152.32,22.33,-0.0946,-0.5109,-0.5929
19.174,-52.64,129.99,12.11,-0.081,-0.547,-0.5743
19.192,-43.54,160.3,4.34,-0.0805,-0.4694,-0.6436
19.207,-37.24,88.69,11.6899,-0.0888,-0.5402,-0.3694
19.223,-42.63,89.67,16.31,-0.2269,-0.4104,-0.5036
19.238,-36.61,64.96,23.87,0.0502,-0.4953,-0.3577
19.254,-37.94,35.91,24.78,0.0863,-0.4919,-0.4133
19.27,-36.89,44.59,20.72,0.0244,-0.4821,-0.4567
19.287,-35.77,39.13,12.88,0.0566,-0.5011,-0.527
19.304,-34.44,35.63,4.34,0.0971,-0.5612,-0.5895
19.322,-31.92,28.7,-4.2,0.1034,-0.5607,-0.6451
19.337,-30.31,26.6,-10.78,0.0688,-0.6485,-0.7471
19.352,-30.31,25.62,-15.05,0.0849,-0.6622,-0.7676
19.366,-29.12,22.54,-15.19,0.0824,-0.6275,-0.7871
19.384,-29.75,19.25,-12.53,0.0971,-0.6466,-0.7973
19.402,-27.09,19.25,-10.78,0.1273,-0.668,-0.8471
19.419,-26.6,18.62,-10.01,0.1327,-0.6651,-0.8784
19.437,-25.83,18.48,-7.84,0.1581,-0.6724,-0.8984
19.454,-26.25,18.27,-4.69,0.1776,-0.6758,-0.9164
19.472,-28.21,35.4199,0.0,0.221,-0.7022,-0.9925
19.487,-27.86,17.99,0.14,0.1298,-0.6846,-1.0794
19.501,-27.86,20.16,-2.31,0.1171,-0.7139,-1.2048
19.517,-29.68,22.68,-7.56,0.1468,-0.7969,-1.3527
19.531,-32.41,24.99,-13.09,0.1683,-0.8095,-1.4
19.549,-32.97,28.35,-14.21,0.1439,-0.6954,-1.3839
19.567,-30.45,28.7,-7.42,0.2483,-0.6417,-1.2766
19.582,-28.21,26.04,4.06,0.3528,-0.6319,-1.1882
19.598,-24.36,21.28,13.65,0.3952,-0.5729,-1.1092
19.612,-20.37,15.12,21.42,0.4738,-0.5299,-1.0287
19.628,-14.7,7.98,26.04,0.5465,-0.5182,-0.9525
19.644,-8.75,-1.26,26.88,0.4972,-0.4562,-0.9115
19.662,-3.29,-7.7,23.8,0.3655,-0.3811,-0.8813
19.678,8.89,-10.36,20.16,0.2386,-0.3054,-0.7817
19.695,19.04,-13.3,12.95,0.2249,-0.2688,-0.6866
19.712,28.91,-16.66,1.68,0.2479,-0.2688,-0.5968
19.726,37.1,-19.4599,-8.47,0.2444,-0.2625,-0.5328
19.742,47.11,-22.68,-24.36,0.2225,-0.2435,-0.4904
19.76,56.42,-26.18,-37.31,0.241,-0.2732,-0.4372
19.778,65.5199,-30.66,-44.73,0.3347,-0.3254,-0.3923
19.794,70.91,-35.84,-45.15,0.3855,-0.3581,-0.3606
19.812,75.67,-41.93,-40.32,0.4411,-0.3991,-0.3718
19.825,79.38,-47.04,-31.57,0.5397,-0.4723,-0.4328
19.839,80.29,-51.31,-19.53,0.5734,-0.4865,-0.5158
19.854,81.48,-55.93,-7.28,0.5553,-0.4474,-0.6431
19.869,82.67,-57.54,3.99,0.5289,-0.4245,-0.8042
19.885,83.3,-56.14,14.49,0.4684,-0.4216,-0.8935
19.901,84.63,-52.57,18.69,0.3899,-0.4279,-0.9691
19.916,83.23,-47.6699,18.9,0.304,-0.4684,-0.9711
19.944,80.15,-36.68,15.82,0.4177,-0.5836,-0.8837
19.96,77.0,-31.71,11.06,0.426,-0.647,-0.9198
19.978,70.56,-27.58,5.18,0.4792,-0.7022,-0.9706
19.996,62.65,-21.7,-1.33,0.3577,-0.6583,-0.9125
20.014,57.68,-14.0,-5.95,0.2879,-0.6041,-0.9296
20.032,51.03,-7.14,-9.24,0.2884,-0.5582,-0.7827
20.05,46.83,-3.71,-11.34,0.3528,-0.5343,-0.6729
20.068,42.98,-2.17,-14.84,0.3982,-0.5158,-0.6187
20.085,40.04,0.42,-20.93,0.2879,-0.4465,-0.588
20.1,38.0099,3.5,-29.75,0.2171,-0.4484,-0.5446
20.116,36.19,8.68,-43.19,0.1024,-0.4396,-0.5021
20.134,33.25,15.26,-62.3,0.0483,-0.5001,-0.4694
20.152,29.82,21.91,-77.49,0.061,-0.5353,-0.3904
20.17,24.92,24.92,-90.0899,0.1044,-0.5734,-0.3352
20.188,18.41,26.18,-97.0199,0.1883,-0.5982,-0.3357
20.206,12.67,26.95,-99.19,0.2498,-0.6461,-0.3445
20.224,6.3,27.02,-94.78,0.2786,-0.7032,-0.3523
20.242,-1.96,28.35,-83.51,0.2205,-0.6568,-0.365
20.26,-8.96,29.61,-63.0,0.2449,-0.6495,-0.4162
20.277,-14.56,32.13,-43.47,0.2083,-0.629,-0.4592
20.293,-17.85,35.0,-28.49,0.22,-0.6529,-0.4797
20.309,-22.33,38.43,-21.84,0.2571,-0.7246,-0.5114
20.323,-26.11,41.72,-18.2,0.263,-0.7237,-0.5431
20.34,-28.98,45.9199,-14.77,0.2923,-0.6944,-0.6217
20.355,-30.38,50.4,-13.09,0.3064,-0.6368,-0.6656
20.371,-29.54,54.04,-13.16,0.3782,-0.5841,-0.6724
20.386,-28.84,56.21,-14.84,0.4523,-0.5773,-0.7324
20.401,-28.49,57.4,-19.95,0.4953,-0.6417,-0.7876
20.419,-29.68,58.59,-30.24,0.5792,-0.7115,-0.8935
20.437,-32.83,58.03,-39.55,0.6934,-0.729,-0.9476
20.452,-35.56,55.72,-41.93,0.8017,-0.7071,-0.993
20.468,-38.15,51.73,-40.6,1.0013,-0.6827,-1.158
20.484,-40.6699,47.18,-40.6699,1.0057,-0.6627,-1.2688
20.502,-42.0,44.73,-46.27,0.9232,-0.6607,-1.2795
20.52,-45.99,44.66,-56.42,0.8217,-0.6788,-1.238
20.537,-49.98,44.1,-61.74,0.7788,-0.6368,-1.1302
20.555,-53.76,40.81,-61.53,0.8174,-0.5875,-1.0311
20.573,-59.99,34.93,-56.77,0.8754,-0.5548,-0.793
20.588,-63.91,27.93,-50.68,0.9364,-0.5084,-0.6905
20.606,-68.46,17.22,-41.58,0.9677,-0.4801,-0.6383
20.623,-71.89,7.56,-32.7599,1.014,-0.4709,-0.6558
20.64,-75.04,-0.28,-25.76,0.9618,-0.4958,-0.6914
20.656,-78.54,-4.41,-20.44,0.8393,-0.5241,-0.729
20.672,-80.36,-3.5,-14.28,0.7154,-0.5119,-0.7515
20.69,-81.83,0.84,-4.06,0.647,-0.4884,-0.7773
20.703,-81.9,5.39,9.59,0.6344,-0.4489,-0.7681
20.717,-81.83,8.89,22.61,0.6949,-0.4504,-0.7559
20.733,-81.48,12.25,43.54,0.7471,-0.4265,-0.7227
20.746,-81.55,12.95,61.88,0.8188,-0.4318,-0.6963
20.761,-81.3399,11.97,76.79,0.8779,-0.4289,-0.6622
20.777,-82.95,9.03,85.54,0.933,-0.5001,-0.667
20.795,-83.16,7.49,90.72,0.8657,-0.4177,-0.6505
20.813,-80.85,5.95,91.63,0.8271,-0.3777,-0.6675
20.828,-78.05,5.67,89.67,0.8012,-0.363,-0.6734
20.846,-76.3,4.48,87.29,0.8052,-0.342,-0.7124
20.864,-72.8,4.76,89.81,0.7768,-0.2698,-0.7725
20.881,-67.69,6.72,96.18,0.6417,-0.1649,-0.7842
20.899,-62.93,8.54,101.22,0.6265,-0.1239,-0.8349
20.917,-56.28,8.68,99.89,0.6524,-0.16,-0.8891
20.934,-55.86,8.12,89.32,0.5294,-0.3142,-0.7666
20.949,-54.39,5.11,86.5199,0.3899,0.0151,-0.5597
20.966,-51.8,1.96,93.17,0.3479,-0.3547,-0.2205
20.982,-59.43,-6.02,106.89,0.2435,-0.2586,-0.813
20.998,-60.55,-5.04,122.71,0.7051,-0.3411,-1.2849
21.016,-74.76,-33.25,126.0,1.8387,-0.7515,-1.4635
21.032,-89.11,-52.99,110.25,1.0501,-0.3157,-0.3904
21.05,-92.75,-72.45,90.72,0.8003,-0.3235,-0.5914
21.067,-84.98,157.78,68.81,-0.9808,0.0707,-1.1263
21.083,-61.81,-51.24,69.16,-0.0097,0.2322,-0.2191
21.099,-87.5,30.73,63.28,0.263,0.2132,-1.1497
21.115,-65.45,18.2,61.95,0.1917,0.284,-0.8378
21.131,-55.93,1.75,64.19,0.2298,0.3352,-0.8437
21.149,-37.45,-6.37,69.72,0.2561,0.2718,-0.8408
21.166,-21.98,-6.93,74.55,0.3747,0.1981,-0.7422
21.184,-3.64,-2.52,80.57,0.4352,0.1234,-0.691
21.202,5.18,0.0,88.41,0.4997,-0.0156,-0.6651
21.219,14.84,0.35,95.62,0.527,-0.0629,-0.6466
21.235,23.87,1.19,103.32,0.4967,-0.1029,-0.6641
21.25,28.07,3.92,109.97,0.465,-0.1712,-0.6861
21.268,32.97,6.72,114.73,0.4177,-0.2718,-0.6573
21.285,34.02,7.56,114.17,0.4206,-0.3581,-0.7949
21.301,35.35,9.31,105.49,0.3298,-0.4509,-0.6861
21.319,35.35,13.09,90.58,0.3723,-0.5402,-0.6895
21.337,31.85,13.93,73.29,0.4728,-0.7402,-0.7603
21.352,29.33,15.26,55.44,0.4011,-0.8149,-0.6866
21.368,25.06,17.78,36.4,0.4187,-0.8442,-0.708
21.386,18.2,20.65,23.73,0.4435,-0.8305,-0.7241
21.403,10.08,23.87,22.89,0.444,-0.8188,-0.6973
21.42,0.56,26.6,28.28,0.4533,-0.8159,-0.7373
21.436,-10.01,31.15,39.69,0.3879,-0.7959,-0.7334
21.451,-18.9,34.3,54.88,0.3767,-0.7686,-0.7564
21.467,-26.53,36.75,76.16,0.3782,-0.7354,-0.7603
21.481,-32.27,39.13,94.22,0.3855,-0.7188,-0.7339
21.496,-39.41,40.81,111.79,0.385,-0.7285,-0.6997
21.514,-42.98,39.69,129.15,0.4016,-0.731,-0.6719
21.532,-48.58,37.8,138.74,0.3923,-0.7442,-0.6402
21.55,-49.98,39.62,146.23,0.3757,-0.668,-0.6241
21.568,-48.65,40.32,149.59,0.3494,-0.6456,-0.6143
21.586,-47.25,43.19,151.76,0.3318,-0.6968,-0.6173
21.601,-46.27,45.85,153.9299,0.3742,-0.5612,-0.7046
21.617,-44.8,44.87,157.92,0.3845,-0.6026,-0.6841
21.635,-43.47,45.85,162.96,0.4045,-0.6197,-0.6914
21.652,-43.54,44.87,165.41,0.4011,-0.6875,-0.7271
21.668,-44.24,43.54,165.2,0.342,-0.7485,-0.7354
21.684,-48.37,42.63,165.9,0.3001,-0.7598,-0.7227
21.699,-51.1699,42.07,170.1,0.3128,-0.6788,-0.7076
21.716,-53.06,38.43,178.57,0.3547,-0.5929,-0.6734
21.734,-53.76,32.06,187.11,0.3215,-0.5675,-0.6651
21.747,-54.53,28.49,189.28,0.3635,-0.5324,-0.6705
21.765,-51.94,21.42,186.06,0.3386,-0.4782,-0.6832
21.778,-47.11,13.44,176.61,0.304,-0.4709,-0.6583
21.796,-41.72,6.65,158.2,0.2703,-0.4709,-0.7198
21.811,-36.75,-0.21,141.05,0.1937,-0.4143,-0.7656
21.829,-32.41,-4.76,117.04,0.161,-0.4006,-0.8066
21.847,-23.94,-11.55,92.47,0.1288,-0.4079,-0.912
21.864,-18.62,-15.82,74.62,0.1146,-0.4611,-0.9491
21.879,-14.63,-19.53,57.75,0.1742,-0.4626,-0.9916
21.895,-12.25,-23.87,47.46,0.1756,-0.4772,-0.9984
21.908,-9.7299,-27.44,41.02,0.1869,-0.4016,-1.0589
21.921,-6.93,-29.4,37.1699,0.1093,-0.4011,-1.0931
21.935,-3.71,-29.96,32.62,0.0361,-0.3869,-1.1302
21.95,-0.14,-29.19,27.44,-0.0546,-0.3337,-1.1453
21.968,3.43,-25.69,23.1,-0.1307,-0.2469,-1.1375
21.984,11.83,-21.7,19.18,-0.1708,-0.1756,-1.0565
22.013,29.54,-14.56,-3.29,-0.1995,-0.0444,-0.9496
22.03,42.7,-10.15,-29.19,-0.2444,-0.0278,-0.891
22.045,52.57,-5.95,-59.43,-0.2571,-0.0692,-0.8169
22.059,66.99,1.33,-96.18,-0.2303,-0.0902,-0.7715
22.076,81.76,10.43,-139.37,-0.2479,-0.0736,-0.7588
22.095,92.47,18.62,-180.39,-0.2161,-0.304,-0.6319
22.111,85.12,21.2099,-209.86,-0.3723,-0.7076,-0.732
22.129,93.45,35.21,-242.9,-0.0824,-0.5929,-0.7222
22.147,88.06,47.04,-273.0,-0.0414,-0.689,-0.8813
22.164,80.08,50.82,-292.25,0.3001,-0.6363,-0.6163
22.179,72.17,51.8,-314.65,0.1586,-0.5143,-0.3538
22.194,66.43,49.77,-329.49,0.549,-0.5021,-0.3494
22.208,59.43,42.07,-339.43,0.7524,-0.607,-0.5246
22.226,44.66,36.05,-345.1,0.3381,-0.79,-0.7856
22.242,25.83,47.6699,-341.88,0.4606,-1.0906,-0.7915
22.26,4.13,38.99,-321.93,0.5816,-0.3425,-0.5738
22.276,-11.62,35.21,-276.57,0.159,-0.4357,-0.5304
22.289,-23.52,36.75,-218.89,0.3772,-0.5163,-0.7119
22.303,-42.91,34.79,-149.87,0.5655,-0.0019,-0.8281
22.319,-46.13,35.0,-75.6,0.4665,-0.587,-0.688
22.334,-69.16,32.48,-4.34,0.6495,-0.2874,-0.7149
22.351,-78.19,27.16,48.65,0.7588,-0.2542,-0.6802
22.368,-79.87,16.45,65.87,0.8335,-0.2932,-0.6334
22.382,-77.0,7.21,62.51,0.7847,-0.2127,-0.6602
22.414,-63.49,-15.68,31.71,0.8574,-0.2586,-0.6051
22.432,-49.91,-27.3,6.3,0.7705,-0.2703,-0.6451
22.447,-39.34,-35.56,-16.17,0.6973,-0.2122,-0.6988
22.463,-26.95,-41.44,-36.75,0.5324,-0.2605,-0.7359
22.479,-17.7099,-44.24,-52.22,0.5216,-0.2786,-0.8169
22.495,-8.96,-46.9,-65.5199,0.5787,-0.3001,-0.8535
22.508,-0.49,-49.0,-72.38,0.5743,-0.303,-0.891
22.523,7.14,-48.23,-77.42,0.5123,-0.2708,-0.9125
22.539,14.63,-46.48,-78.89,0.5021,-0.2308,-0.8866
22.556,21.28,-42.91,-76.65,0.4943,-0.2274,-0.935
22.571,30.8,-40.6,-76.37,0.6012,-0.1527,-0.9701
22.585,37.31,-38.71,-75.95,0.6383,-0.2508,-1.0106
22.613,49.28,-34.02,-77.7699,0.7139,-0.1137,-1.0213
22.631,57.4,-29.96,-74.2,0.7115,-0.0692,-1.033
22.649,63.98,-25.69,-70.35,0.6646,-0.0829,-1.0614
22.665,70.28,-18.48,-69.44,0.5831,-0.0883,-1.1111
22.68,75.67,-11.83,-73.5,0.548,-0.1132,-1.0823
22.693,80.64,-5.7399,-78.61,0.6226,-0.1688,-1.0062
22.707,83.72,-1.96,-87.85,0.7095,-0.1615,-0.9203
22.722,87.85,1.33,-97.58,0.6919,-0.1581,-0.8076
22.737,93.94,5.04,-110.46,0.7461,-0.1195,-0.7285
22.752,99.4,9.45,-128.31,0.6397,-0.1054,-0.6461
22.766,107.17,15.33,-146.58,0.6319,-0.1127,-0.5372
22.782,113.12,21.91,-172.83,0.5748,-0.0014,-0.5938
22.8,121.38,32.62,-193.34,0.4743,0.0854,-0.6202
22.828,126.56,50.2599,-202.58,0.627,-0.0619,-0.6358
22.845,127.12,60.83,-190.26,0.5943,-0.1298,-0.6812
22.86,122.29,70.91,-169.33,0.5592,-0.0575,-0.7729
22.876,118.37,83.44,-146.7899,0.5612,0.0409,-0.8403
22.894,116.76,94.01,-125.3,0.7036,-0.0248,-0.8076
22.912,116.62,102.41,-125.65,0.7285,-0.0951,-0.8017
22.927,122.57,108.43,-139.51,0.7651,0.0746,-0.7476
22.943,135.38,113.75,-168.49,0.8671,0.2078,-0.6622
22.961,150.57,120.05,-206.2899,0.8779,0.242,-0.5582
22.978,165.83,129.85,-248.64,0.7749,0.3298,-0.485
22.995,179.97,144.83,-278.74,0.6402,0.4894,-0.3474
23.013,191.8,161.42,-322.42,0.6217,0.5714,-0.2464
23.027,206.2899,185.64,-323.68,0.6207,0.6749,-0.1888
23.045,210.91,214.2,-346.57,0.6056,0.6178,-0.1693
23.063,209.51,238.14,-360.22,0.7105,0.6168,-0.0517
23.08,202.72,259.63,-364.14,0.7539,0.6002,0.0204
23.098,185.64,277.48,-367.15,0.7383,0.5748,0.0775
23.115,166.53,291.8299,-375.97,0.7886,0.6973,0.1283
23.128,151.62,296.73,-388.92,0.933,0.7568,0.2161
23.142,136.2899,298.55,-406.56,1.0467,0.7739,0.2332
23.157,117.46,295.47,-424.9,0.9276,0.7817,0.2313
23.171,96.67,295.12,-445.97,1.0062,0.8803,0.2166
23.186,75.32,285.67,-460.46,0.9735,0.9882,0.2971
23.204,52.92,277.8299,-446.74,0.9564,0.9852,0.2137
23.218,28.28,265.79,-420.56,0.8047,0.9472,0.4489
23.234,-4.55,247.94,-375.34,0.6178,1.0047,0.4201
23.248,-21.56,248.29,-336.56,0.5992,0.9218,0.3211
23.262,-37.66,233.73,-294.28,0.547,0.9847,0.4675
23.276,-48.23,220.5,-266.77,0.7442,0.7398,0.3191
23.291,-54.25,213.64,-249.76,0.3064,0.9725,0.2601
23.307,-56.28,207.83,-239.4,0.4016,0.8769,0.2947
23.322,-61.53,189.77,-235.06,0.2274,0.8413,0.3045
23.336,-64.54,177.52,-232.19,0.1307,0.8788,0.2464
23.364,-59.64,156.17,-227.29,0.0624,0.5475,0.0712
23.382,-70.7699,147.21,-252.0,-0.3699,0.5597,0.1542
23.4,-39.69,115.15,-308.98,-0.3128,0.9608,0.2386
23.413,-36.12,115.99,-313.18,-0.7295,0.9276,0.5221
23.427,-39.27,96.67,-269.22,-0.3977,0.9286,0.0795
23.442,-49.63,89.18,-191.45,-0.5265,0.5768,0.3669
23.456,-67.2699,71.75,-104.72,-0.2952,0.8486,0.3786
23.474,-84.42,58.66,-2.03,-0.301,0.9774,0.3128
23.492,-93.8,49.91,69.93,-0.1098,1.0043,0.3479
23.507,-99.33,36.4,114.03,-0.3123,0.8735,0.303
23.523,-102.97,27.02,138.39,-0.3864,0.9789,0.2527
23.551,-89.95,12.04,99.26,-0.4494,0.9433,0.3513
23.568,-76.93,-2.8699,57.19,-0.3362,1.0672,0.3713
23.586,-59.01,-18.34,18.9,-0.3762,1.0482,0.2986
23.602,-42.98,-30.45,-3.92,-0.3347,1.1277,0.2752
23.62,-37.87,-46.41,-10.5,-0.5192,0.9418,0.2347
23.637,-31.92,-50.2599,-8.05,-0.7954,0.791,0.2747
23.653,-33.18,-53.06,2.24,-0.5694,0.71,0.325
23.669,-35.0,-55.23,11.9,-0.7895,0.8213,0.486
23.685,-32.48,-55.93,12.46,-0.832,0.8081,0.4372
23.698,-20.51,-52.85,4.9699,-0.6666,1.32,0.2781
23.716,-13.58,-53.76,-21.56,-0.9286,0.425,0.2845
23.732,-4.9,-43.68,-33.74,-0.8022,0.5475,0.3786
23.746,-5.67,-44.66,-33.6699,-0.5704,0.5485,0.4035
23.762,-7.28,-42.35,-23.1,-0.6148,0.5299,0.4352
23.778,-12.81,-40.11,-0.91,-0.6661,0.4509,0.4577
23.809,-18.34,-35.56,21.14,-0.627,0.5099,0.4714
23.827,-20.51,-35.7,18.06,-0.5763,0.5675,0.4704
23.845,-20.09,-34.23,11.76,-0.5387,0.6236,0.4855
23.863,-18.62,-32.7599,4.83,-0.6383,0.6919,0.4572
23.88,-15.54,-28.98,3.43,-0.6797,0.7925,0.4655
23.895,-14.84,-28.0,14.63,-0.6661,0.8622,0.4548
23.911,-17.22,-25.97,43.2599,-0.6783,0.915,0.4367
23.929,-23.1,-22.9599,109.2,-0.728,0.9208,0.4148
23.947,-32.27,-18.34,172.48,-0.7485,1.1102,0.3264
23.965,-32.62,-15.33,199.71,-0.5895,1.1819,0.3679
23.983,-24.78,-16.87,200.9,-0.3703,1.3639,0.5202
24.0,-14.63,-22.68,183.82,-0.303,1.3829,0.5699
24.013,-1.12,-27.37,164.36,-0.3498,1.399,0.6065
24.031,8.96,-36.75,135.45,-0.3557,1.2634,0.5368
24.049,12.25,-43.75,120.89,-0.3664,0.9711,0.3479
24.067,10.01,-46.34,117.32,-0.488,0.6812,0.1283
24.084,4.55,-33.39,125.72,-0.4504,0.4606,0.02
24.102,-18.83,-29.19,169.26,-0.5275,0.2835,0.1166
24.118,-41.02,-11.06,212.31,-0.8349,-0.0629,0.2244
24.133,-63.56,6.44,253.54,-0.7617,0.1161,0.1532
24.15,-81.62,32.06,304.0799,-0.8056,0.344,0.0405
24.166,-93.73,63.21,349.44,-0.6207,0.4855,0.0302
24.181,-102.06,82.39,392.07,-0.1293,0.7056,0.078
24.199,-104.79,104.44,456.19,-0.0029,2.1052,0.464
24.217,-65.66,103.04,489.86,0.994,1.7026,0.7607
24.233,-17.92,73.22,460.88,1.6645,0.935,0.8813
24.249,1.75,23.52,370.93,1.5494,0.5289,0.5001
24.263,10.22,-12.32,259.84,1.1443,0.4348,0.3513
24.281,16.73,-31.29,134.96,0.9193,0.4318,0.2444
24.297,19.81,-41.16,78.19,0.9208,0.4723,0.3001
24.313,16.73,-42.84,55.65,0.7359,0.3845,0.4557
24.331,5.81,-36.19,82.04,0.6685,0.2527,0.3938
24.346,-7.84,-17.85,126.21,0.4631,0.1986,0.4143
24.364,-28.14,-6.79,182.49,0.691,0.3411,0.4421
24.382,-33.95,8.68,241.92,0.8618,0.4338,0.6124
24.399,-43.4,14.84,276.57,0.9384,0.3835,0.752
24.417,-47.81,17.08,294.56,0.8222,0.1615,0.75
24.435,-46.06,19.11,290.99,0.8705,0.179,0.6065
24.453,-42.98,28.49,272.37,0.5133,0.1742,0.8247
24.471,-18.1299,29.05,235.41,0.6939,0.1507,0.7969
24.484,-22.26,28.84,200.97,0.6134,0.1263,0.668
24.5,-10.99,28.42,160.72,0.3908,-0.0214,0.772
24.518,-4.2,27.58,112.7,0.3591,-0.1683,0.7432
24.536,0.0,25.55,91.98,0.5763,-0.1683,0.7549
24.552,1.26,23.31,90.51,0.5285,-0.1991,0.8164
24.568,4.13,21.35,92.61,0.4909,-0.1683,0.8691
24.584,13.93,19.6,80.22,0.4265,-0.2069,0.9003
24.602,15.89,14.98,61.88,0.5504,-0.1678,0.9491
24.618,30.1,11.4799,36.4,0.4948,-0.1566,0.9476
24.632,38.43,9.52,9.31,0.5426,-0.1322,0.9916
24.646,46.41,6.58,-12.88,0.2615,-0.1673,1.0072
24.664,52.5,12.46,-8.4,0.8227,-0.159,1.1394
24.682,29.68,-31.71,17.92,1.2136,-0.5246,0.9237
24.698,13.65,-2.8699,23.59,0.6173,-0.4143,0.7559
24.715,21.2099,28.7,22.47,0.5875,-0.4079,0.6153
24.733,17.85,24.5,16.94,0.8052,-0.6963,1.2434
24.749,0.91,4.27,3.64,0.6509,-0.7412,0.9794
24.765,-8.61,8.12,-3.71,0.5987,-0.4845,0.67
24.78,-15.33,8.12,-3.85,0.5241,-0.3845,0.648
24.796,-25.83,12.95,6.51,0.4792,-0.3372,0.6275
24.811,-34.79,15.89,36.68,0.5138,-0.2044,0.6295
24.829,-44.66,22.4,69.93,0.6075,-0.3045,0.6963
24.843,-48.79,24.57,84.98,0.6148,-0.3059,0.7261
24.86,-70.14,26.32,82.46,0.6075,-0.362,0.6822
24.877,-53.62,27.79,72.87,0.6046,-0.2308,0.6768
24.893,-55.51,25.06,58.03,0.6675,-0.3186,0.793
24.911,-50.89,23.17,44.31,0.7856,-0.3201,0.7949
24.928,-48.37,18.06,31.85,0.6802,-0.3123,0.7524
24.945,-44.38,16.8,24.36,0.6836,-0.2923,0.7007
24.96,-43.4,17.92,26.39,0.6929,-0.1888,0.6807
24.976,-36.89,14.0,25.9,0.7734,-0.2879,0.6914
24.994,-31.36,7.49,16.94,0.6095,-0.1307,0.77
25.012,-23.03,5.95,4.13,0.6836,-0.2186,0.6827
25.03,-0.42,2.94,0.98,0.6963,-0.2425,0.6846
25.047,-14.28,0.63,5.25,0.7285,-0.2527,0.6914
25.065,-11.34,-1.54,11.27,0.7349,-0.2674,0.6539
25.083,-7.98,-3.08,12.74,0.7681,-0.2771,0.647
25.101,-5.04,-5.46,9.52,0.7754,-0.2815,0.649
25.119,-1.47,-8.12,3.92,0.7661,-0.3045,0.6475
25.137,0.35,-10.85,2.38,0.7954,-0.3279,0.6217
25.155,1.75,-10.5,10.36,0.7603,-0.3606,0.6441
25.171,1.12,-10.36,25.34,0.7564,-0.3606,0.6758
25.189,0.28,-9.38,37.45,0.7446,-0.3508,0.6866
25.207,1.54,-9.1,42.35,0.7778,-0.3396,0.7032
25.224,5.25,-10.15,38.43,0.7442,-0.3225,0.6944
25.238,10.29,-11.41,31.15,0.7202,-0.3264,0.7266
25.255,16.45,-14.28,23.52,0.7193,-0.344,0.7705
25.273,22.47,-17.5,19.67,0.6666,-0.3835,0.833
25.29,26.74,-20.09,20.44,0.6173,-0.3772,0.8666
25.305,30.38,-21.91,21.6299,0.5675,-0.363,0.8818
25.321,35.4199,-22.89,19.39,0.4904,-0.3606,0.8686
25.336,40.6699,-21.56,14.42,0.4362,-0.386,0.8749
25.354,45.08,-23.03,6.58,0.3933,-0.4289,0.8949
25.367,47.53,-21.07,1.96,0.3494,-0.466,0.9193
25.383,48.3,-23.03,-0.98,0.3508,-0.5255,0.9647
25.398,47.39,-20.58,-0.84,0.3328,-0.5607,0.9496
25.413,45.22,-20.3,0.77,0.3162,-0.5592,0.9511
25.441,37.8,-17.15,1.54,0.3108,-0.5387,0.9242
25.456,33.32,-15.54,0.63,0.3269,-0.5265,0.9052
25.471,28.56,-14.49,0.21,0.3606,-0.5001,0.873
25.487,22.61,-12.6,1.54,0.385,-0.4948,0.85
25.505,18.55,-10.92,4.76,0.4289,-0.4733,0.833
25.523,12.6,-8.82,6.79,0.4382,-0.4655,0.7851
25.541,10.64,-6.65,9.1,0.4431,-0.4616,0.7681
25.559,8.68,-2.17,10.85,0.4401,-0.464,0.7373
25.576,8.12,1.61,11.62,0.4426,-0.4489,0.7266
25.591,8.05,4.62,10.29,0.4562,-0.4377,0.7144
25.609,7.98,7.7,7.77,0.467,-0.4387,0.6871
25.627,7.28,9.7299,8.89,0.486,-0.4411,0.6856
25.644,5.39,10.22,13.72,0.5221,-0.4577,0.7051
25.661,2.1,8.89,19.74,0.5265,-0.464,0.7246
25.679,-0.7,6.93,24.85,0.5285,-0.4592,0.7466
25.695,-5.53,3.5,30.73,0.5041,-0.4474,0.772
25.711,-9.59,-0.35,41.09,0.5163,-0.4421,0.7988
25.729,-14.91,-4.9,54.11,0.5055,-0.4172,0.813
25.745,-17.22,-8.89,63.07,0.4338,-0.3855,0.8125
25.762,-17.22,-13.09,64.05,0.3713,-0.3147,0.8154
25.778,-15.54,-15.47,62.72,0.3435,-0.2869,0.8276
25.795,-15.19,-20.86,67.83,0.3152,-0.2742,0.8125
25.809,-13.02,-22.33,78.26,0.242,-0.2679,0.8418
25.827,-12.18,-29.4,90.79,0.2708,-0.2698,0.8276
25.845,-12.04,-37.59,100.66,0.3069,-0.2669,0.8149
25.861,-9.17,-46.27,101.43,0.322,-0.2571,0.8315
25.878,-4.2,-56.28,95.06,0.2884,-0.242,0.8413
25.896,2.66,-64.47,79.24,0.2205,-0.2493,0.8735
25.913,10.08,-71.4,65.73,0.1249,-0.3084,0.954
25.929,17.22,-73.43,63.42,0.0595,-0.4035,1.0516
25.945,22.82,-73.36,71.47,0.0136,-0.5001,1.1785
25.959,27.51,-72.87,83.3,0.0019,-0.6007,1.2629
25.977,34.65,-70.49,92.68,0.0278,-0.5987,1.2595
25.993,41.65,-69.58,87.22,-0.02,-0.5987,1.1975
26.01,54.39,-60.2,71.61,0.0629,-0.5997,1.0872
26.028,64.26,-52.92,46.83,0.2181,-0.6583,1.035
26.046,67.2,-46.9,36.47,0.2347,-0.7617,1.0369
26.063,62.58,-42.91,39.2,0.528,-0.9452,1.0467
26.078,51.45,-43.61,34.5099,0.3855,-0.915,0.9018
26.094,33.6699,-42.14,30.73,0.6724,-0.9725,0.8359
26.112,14.7,-42.07,36.61,0.7437,-0.6773,0.7412
26.128,1.61,-41.93,50.82,0.6534,-0.3835,0.6314
26.143,-4.62,-39.7599,66.08,0.6485,-0.1693,0.4992
26.16,-5.6,-35.56,64.4,0.6163,-0.1049,0.4596
26.173,-3.36,-34.5099,49.07,0.6256,-0.1063,0.4191
26.187,1.05,-32.06,21.6299,0.6422,-0.0927,0.3669
26.205,1.82,-30.52,-12.11,0.6836,-0.2396,0.2649
26.221,11.97,-22.82,-29.12,0.7642,-0.2776,0.4392
26.239,10.92,-24.7099,-54.6,0.8686,-0.3762,0.446
26.257,9.87,-18.55,-66.15,0.8891,-0.5187,0.5738
26.274,8.05,-11.06,-66.29,0.9501,-0.6241,0.7798
26.292,7.42,0.63,-60.2,1.0687,-0.8496,0.994
26.31,-1.82,8.75,-47.39,1.1082,-0.7666,1.1575
26.326,-11.27,19.18,-27.72,0.751,-0.83,1.2448
26.342,-14.84,25.83,-8.96,0.568,-0.6524,1.2151
26.36,-15.19,26.81,-1.26,0.4948,-0.5519,1.0369
26.378,-10.78,23.17,-12.53,0.4538,-0.3459,0.9208
26.394,-7.07,16.03,-25.9,0.404,-0.3655,0.8583
26.408,-7.42,16.59,-21.28,0.2771,-0.3206,0.976
26.425,-17.36,14.56,7.7,0.2283,-0.4108,1.0897
26.442,-29.61,16.17,49.7,0.0985,-0.3089,1.0755
26.458,-38.85,15.61,85.19,0.0546,-0.2757,1.0028
26.475,-45.29,14.35,96.25,-0.1581,-0.1151,0.9291
26.488,-43.82,15.89,84.56,-0.3186,-0.0824,0.8793
26.502,-41.72,15.75,71.19,-0.4923,0.1068,0.9598
26.519,-36.33,23.45,74.41,-0.4196,0.0702,1.0369
26.533,-22.68,26.39,95.97,-0.3899,0.243,1.1443
26.551,-1.12,31.08,131.74,-0.3547,0.301,1.2849
26.567,23.59,33.11,146.7899,-0.2801,0.3167,1.3395
26.583,56.0,32.06,141.4,-0.3284,0.2552,1.3727
26.612,136.01,25.41,99.33,-0.2684,-0.425,1.6533
26.629,161.91,20.3,91.35,-0.1664,-1.0091,1.9861
26.645,171.92,8.26,107.66,-0.078,-1.6733,2.1423
26.663,174.09,3.99,158.2,0.0097,-1.8231,2.3458
26.68,164.01,-11.83,190.26,-0.0736,-2.0198,1.8129
26.696,159.25,-17.78,216.51,0.0331,-1.8802,1.9017
26.713,151.48,-26.39,225.68,0.0722,-2.0491,1.5328
26.731,143.64,-38.43,217.07,0.1229,-1.9685,1.2507
26.747,124.6,-52.36,203.14,0.0151,-1.9466,0.9374
26.763,106.26,-56.0,200.55,0.122,-1.8129,0.9818
26.781,77.49,-64.96,209.58,0.0844,-1.5479,0.8012
26.797,52.71,-75.11,219.94,0.1034,-1.1687,0.4962
26.812,39.27,-80.29,225.68,0.0244,-0.6412,0.0575
26.828,35.35,-82.11,217.28,-0.202,-0.3742,-0.1717
26.846,35.35,-81.48,190.75,-0.363,-0.3923,-0.2815
26.861,29.89,-82.74,179.62,-0.3294,-0.3684,-0.3142
26.879,26.88,-78.33,182.14,-0.2352,-0.3313,-0.2264
26.893,22.75,-74.9,190.4,-0.1586,-0.426,-0.0463
26.906,16.31,-73.64,189.21,-0.0536,-0.4948,0.1776
26.921,10.78,-70.42,175.91,-0.0541,-0.6119,0.3445
26.935,3.78,-63.21,162.96,-0.284,-0.9618,0.464
26.954,-14.07,-54.67,173.88,-0.4313,-1.1258,0.5782
26.97,-48.3,-40.04,190.89,-0.2703,-1.402,0.6104
26.988,-72.5199,-28.14,191.94,-0.0346,-1.4317,0.6226
27.006,-110.53,-18.83,176.5399,0.0419,-1.3951,0.6124
27.024,-133.14,-10.5,170.73,0.0844,-1.3727,0.6104
27.042,-151.55,-6.09,173.6,0.1688,-1.2819,0.5724
27.057,-169.5399,-4.62,172.83,0.4255,-1.0199,0.6187
27.075,-178.2899,-6.16,168.07,0.8266,-0.9955,0.8808
27.088,-176.75,-0.98,151.2,0.9642,-0.9852,0.9618
27.102,-168.91,-5.81,122.36,0.9886,-0.8491,0.911
27.116,-154.28,-1.33,95.83,0.7554,-0.6778,0.8515
27.148,-123.83,10.43,49.4199,0.933,-0.667,0.7793
27.166,-83.0199,19.81,2.94,1.1863,-0.9193,0.8169
27.183,-55.3,20.86,-69.3,1.3537,-1.2746,0.8984
27.2,-20.37,24.5,-144.2,1.6055,-1.8651,0.7861
27.216,24.64,44.94,-211.82,2.0905,-2.3433,0.324
27.234,97.3,60.06,-320.39,2.0251,-2.8299,-0.8183
27.252,116.27,67.9,-438.9,1.6914,-3.2622,-1.3849
27.265,102.97,98.98,-450.31,1.5977,-3.4599,-1.8426
27.279,76.16,167.44,-443.38,1.2717,-3.9303,-1.9451
27.294,34.02,234.57,-463.75,1.0711,-4.5911,-1.9768
27.309,-7.28,295.68,-546.28,0.8466,-4.9317,-2.0642
27.337,-129.99,403.97,-621.81,-0.8315,-4.0123,-3.29
27.353,-214.69,493.22,-505.4,-1.6396,-3.0378,-3.7166
27.368,-211.26,974.47,-94.85,-1.5157,-5.0088,-4.1719
27.386,-157.2899,-1355.83,-729.68,-6.1946,-0.8271,-3.3179
27.401,-1030.89,-351.19,-1400.98,-0.81,3.6116,-0.2561
27.419,-101.64,-157.85,-692.09,-5.5534,-9.1719,0.7768
27.433,-469.77,108.36,-45.99,-2.8738,-5.9823,0.872
27.451,-638.54,115.92,-21.42,-2.7015,-3.5706,1.4552
27.466,-618.52,62.79,-298.41,-1.6367,-3.3193,2.0291
27.484,-619.71,1.05,-248.15,-1.0687,-3.0065,2.2238
27.497,-626.78,8.47,-102.2699,-0.6861,-2.1267,1.5996
27.511,-580.02,54.11,1.82,-0.5402,-1.3161,0.8744
27.528,-500.57,86.94,-23.24,-0.4748,-0.7022,0.6919
27.544,-381.15,81.9,-90.65,0.0497,-0.5114,0.506
27.561,-279.5799,70.56,-131.95,0.2976,-0.6797,0.3372
27.578,-205.45,61.32,-137.27,0.4987,-1.0955,0.1971
27.592,-163.59,54.32,-133.07,0.6988,-2.1515,0.0463
27.61,-150.4299,49.84,-101.29,0.5987,-2.8816,-0.078
27.626,-158.69,54.6,-17.01,0.4826,-3.1036,0.0673
27.641,-176.33,62.09,101.92,0.7017,-2.9894,0.0527
27.659,-187.46,66.57,253.12,1.2566,-2.3424,-0.0688
27.674,-162.33,60.2,330.26,1.8529,-1.4966,-0.1859
27.69,-112.84,50.4,291.8299,1.8553,-0.9423,-0.3157
27.705,-33.53,-10.64,185.2899,1.9588,-0.5504,-0.366
27.735,89.18,-88.76,67.13,1.7948,-0.7812,-0.3523
27.753,127.05,-117.32,64.19,1.7109,-0.973,-0.2874
27.766,150.64,-135.59,73.92,1.5864,-1.1248,-0.2766
27.782,171.92,-149.38,86.5899,1.4181,-1.1453,-0.3093
27.798,191.87,-158.13,91.49,1.278,-1.0374,-0.1288
27.815,208.95,-168.49,86.45,1.176,-0.8515,-0.2986
27.829,234.99,-159.0399,70.7,0.9686,-0.7144,-0.2493
27.846,259.7,-163.8,63.42,0.9842,-0.6997,-0.1605
27.863,282.8,-156.45,62.02,0.8354,-0.6275,-0.079
27.878,301.42,-143.15,64.12,0.6573,-0.5807,-0.0575
27.896,317.8,-130.62,65.5899,0.5572,-0.5348,-0.0214
27.91,337.68,-111.65,64.47,0.4553,-0.5148,0.0712
27.927,352.52,-94.78,65.17,0.4694,-0.5075,0.1927
27.941,362.74,-78.82,63.7,0.4894,-0.5382,0.2557
27.956,373.31,-68.95,57.82,0.4762,-0.6612,0.3118
27.983,379.3299,-38.57,38.43,0.4762,-0.9921,0.3006
28.0,376.18,-18.1299,34.02,0.488,-0.9506,0.2898
28.018,365.89,0.7,35.7,0.485,-1.1868,0.2318
28.033,349.5799,13.09,46.48,0.546,-1.2741,0.1932
28.051,332.5,27.3,63.98,0.6153,-1.216,0.1551
28.068,318.29,34.79,64.68,0.6246,-1.1541,0.2093
28.086,311.5,38.71,40.6699,0.5719,-1.0404,0.2444
28.103,301.0,42.84,13.09,0.5021,-1.0243,0.3093
28.119,289.38,47.53,-4.62,0.4928,-0.9662,0.3425
28.136,271.04,50.96,-35.0,0.5304,-0.9589,0.4099
28.154,255.36,51.24,-21.98,0.6143,-0.8559,0.4504
28.17,227.36,47.25,-22.47,0.6588,-0.7285,0.5128
28.188,209.44,40.11,-24.78,0.7232,-0.7573,0.5533
28.202,187.11,33.32,-30.24,0.7193,-0.6324,0.528
28.22,162.4,24.01,-46.48,0.6627,-0.5973,0.6265
28.236,141.82,12.32,-68.88,0.6402,-0.5704,0.6466
28.253,113.12,0.77,-93.17,0.5343,-0.4562,0.5987
28.271,89.11,-3.36,-116.97,0.5065,-0.3196,0.5885
28.288,67.97,-15.12,-118.3,0.6719,-0.4601,0.5694
28.306,27.44,-27.16,-94.01,0.6236,-0.363,0.5734
28.324,-6.93,-39.7599,-61.67,0.7168,-0.323,0.6134
28.342,-41.5099,-53.27,-50.12,0.7651,-0.2991,0.6544
28.358,-55.09,-57.05,-69.65,0.6875,-0.1464,0.791
28.374,-75.46,-101.36,-95.97,0.8705,-0.1068,0.6548
28.389,-77.0,-66.29,-139.09,0.6924,0.3142,0.6685
28.407,-72.38,-82.53,-161.0,0.7354,0.0814,1.0238
28.424,-93.87,-78.33,-160.65,0.6661,-0.1073,1.216
28.438,-120.68,-61.67,-123.62,0.1698,0.1141,0.9403
28.455,-119.7,-39.2,-84.07,0.2967,-0.0209,0.769
28.471,-115.71,-31.01,-61.6,0.2298,0.0185,0.8544
28.487,-103.67,-26.18,-61.46,0.2288,0.0858,0.9725
28.501,-87.99,-23.45,-81.13,0.2239,0.1839,1.0345
28.519,-69.3,-19.6,-108.71,0.2791,0.222,1.0145
28.536,-52.64,-14.7,-122.15,0.2854,0.2483,0.9442
28.552,-38.64,-8.89,-118.37,0.3303,0.2278,0.8993
28.568,-29.75,-2.8,-108.43,0.4035,0.1849,0.8979
28.586,-24.43,2.31,-98.42,0.4196,0.098,0.9091
28.602,-21.84,4.76,-96.18,0.4582,0.0463,0.8842
28.619,-20.37,5.39,-98.0,0.485,-0.1024,0.8686
28.637,-24.64,5.7399,-98.28,0.4884,-0.0453,0.8452
28.652,-26.81,6.51,-96.81,0.447,-0.0507,0.8213
28.667,-29.54,7.35,-95.55,0.4557,-0.0756,0.8847
28.681,-33.11,6.79,-96.6,0.4782,-0.0736,0.9925
28.696,-35.84,4.9,-99.47,0.4928,0.0,1.1062
28.713,-37.38,0.42,-99.26,0.486,0.0971,1.1931
28.731,-37.31,-2.8,-95.2699,0.4455,0.1468,1.3068
28.747,-37.8,-5.39,-86.31,0.3586,0.1337,1.4122
28.763,-40.04,-6.02,-69.93,0.2708,0.0746,1.4884
28.779,-43.12,-5.46,-50.19,0.2313,0.0424,1.5337
28.795,-44.1699,-5.25,-27.65,0.2298,0.0595,1.5245
28.812,-43.61,-4.9699,-17.57,0.221,0.06,1.4874
28.83,-42.07,-4.55,-26.32,0.1878,0.0712,1.4703
28.845,-41.5099,-2.8,-37.8,0.1439,0.0273,1.4381
28.86,-43.82,-0.49,-42.84,0.101,-0.0009,1.4093
28.876,-48.16,3.36,-35.4199,0.0185,-0.0092,1.3498
28.892,-53.27,10.43,-19.25,-0.0287,0.0156,1.2258
28.91,-56.0,20.58,-5.18,-0.0468,0.1093,1.1072
28.928,-53.69,28.35,-0.28,-0.0278,0.16,0.9516
28.946,-44.03,33.6699,-5.95,0.0444,0.2347,0.7983
28.963,-37.59,34.44,-16.94,0.1473,0.2249,0.7222
28.978,-30.66,33.11,-27.3,0.2108,0.2171,0.6514
28.995,-24.5,29.96,-37.66,0.2644,0.1932,0.5621
29.011,-20.23,26.11,-44.8,0.3123,0.1825,0.5041
29.029,-16.94,22.26,-47.39,0.3684,0.16,0.4626
29.047,-14.35,13.3,-45.5,0.4875,0.1503,0.4474
29.063,-14.07,6.93,-44.24,0.5816,0.098,0.4733
29.08,-15.54,-2.59,-45.08,0.6724,0.0087,0.5011
29.094,-18.06,-8.61,-49.35,0.7564,-0.0634,0.4928
29.112,-23.1,-17.43,-59.71,0.8442,-0.2171,0.5387
29.129,-30.66,-25.27,-75.25,0.9115,-0.3645,0.6353
29.147,-39.97,-32.83,-93.87,0.9403,-0.4401,0.7632
29.165,-52.15,-37.73,-107.38,0.9311,-0.4977,0.9276
29.183,-64.54,-41.16,-116.62,0.9247,-0.5314,1.1126
29.199,-76.3,-42.4199,-119.0,0.9003,-0.5089,1.2336
29.213,-84.14,-43.47,-121.03,0.9003,-0.488,1.2863
29.231,-91.07,-43.4,-126.98,0.9189,-0.5299,1.3044
29.248,-94.29,-41.02,-143.99,0.9833,-0.5694,1.338
29.265,-95.48,-36.47,-158.06,1.0794,-0.6431,1.4674
29.28,-97.3,-34.93,-162.12,1.1877,-0.6714,1.6382
29.297,-99.68,-35.91,-151.9,1.2004,-0.6954,1.7514
29.312,-100.66,-36.19,-134.96,1.0496,-0.6456,1.7377
29.327,-97.79,-33.39,-111.65,0.8588,-0.569,1.6255
29.343,-92.4,-29.75,-91.8399,0.649,-0.5099,1.4527
29.361,-83.37,-24.01,-78.33,0.3391,-0.3533,1.2219
29.379,-69.58,-17.36,-68.11,0.0868,-0.1903,0.9189
29.394,-62.58,-10.57,-55.72,-0.0502,-0.1112,0.7788
29.412,-56.84,2.94,-38.64,-0.221,0.0048,0.6924
29.43,-52.71,8.82,-18.69,-0.3342,0.0605,0.5978
29.445,-47.04,32.55,-5.95,-0.3054,0.1366,0.6304
29.461,-39.97,38.22,5.95,-0.2727,0.2332,0.6407
29.476,-34.5099,40.6,15.89,-0.3801,0.2879,0.5777
29.494,-26.32,45.85,18.34,-0.4865,0.2996,0.5392
29.512,-10.08,50.4,19.6,-0.4108,0.4728,0.5616
29.53,2.45,48.3,21.14,-0.1673,0.3864,0.5841
29.546,10.15,39.62,27.65,-0.2171,0.7451,0.5499
29.562,27.23,31.5,38.64,0.1015,0.4157,0.6246
29.579,45.9199,14.77,50.54,0.1844,0.4148,0.7149
29.596,62.72,-3.78,57.47,0.1395,0.2679,0.8383
29.614,83.72,-20.93,74.83,0.0087,0.1664,0.9901
29.629,93.87,-31.71,95.2,0.2137,-0.1952,1.1555
29.644,99.4,-46.83,106.82,0.4626,-0.427,1.4703
29.661,98.8399,-68.18,112.14,0.5592,-0.6739,1.7172
29.677,94.29,-84.28,111.23,0.5358,-0.7471,1.6875
29.693,88.41,-95.48,113.68,0.5221,-0.7524,1.5303
29.71,80.15,-97.51,126.07,0.5392,-0.7983,1.3688
29.723,70.0,-94.15,143.01,0.5407,-0.8974,1.3034
29.737,52.92,-87.92,156.24,0.506,-0.9842,1.217
29.754,29.47,-77.98,155.61,0.508,-1.0931,1.1687
29.771,6.72,-71.75,134.05,0.5109,-1.0779,1.0409
29.786,-10.71,-65.38,116.9,0.527,-0.9701,0.935
29.802,-25.06,-59.15,104.0199,0.4894,-0.9154,0.7895
29.817,-37.1699,-50.82,95.2699,0.4474,-0.7915,0.69
29.831,-47.39,-41.37,91.21,0.4474,-0.6553,0.545
29.849,-53.83,-32.34,86.17,0.4733,-0.4416,0.444
29.864,-54.81,-23.03,77.7699,0.4914,-0.2381,0.345
29.882,-47.81,-17.78,59.85,0.5021,-0.0585,0.2903
29.897,-40.95,-15.82,44.94,0.525,0.0683,0.2244
29.913,-30.66,-15.82,28.91,0.5734,0.1527,0.1961
29.941,-4.13,-19.67,6.65,0.6251,0.1937,0.1864
29.959,14.14,-24.01,-4.34,0.6778,0.1678,0.2488
29.977,32.48,-26.95,-21.2099,0.7193,0.139,0.3752
29.99,48.79,-28.14,-35.0,0.7656,0.04,0.445
30.008,62.72,-28.28,-61.81,0.8476,-0.2078,0.5719
30.025,60.27,-28.63,-78.33,1.0213,-0.7158,0.729
30.042,44.52,-25.76,-62.79,1.1121,-1.2248,1.0711
30.058,15.47,-23.31,-28.21,1.1228,-1.5181,1.4547
30.074,-14.56,-22.05,14.14,0.9247,-1.5269,1.4805
30.09,-39.69,-17.78,36.47,0.711,-1.3317,1.3166
30.107,-51.1,-9.59,37.45,0.5411,-1.136,1.0809
30.123,-52.0099,1.61,29.82,0.4226,-0.8247,0.8662
30.139,-47.46,13.86,22.61,0.3284,-0.6314,0.7246
30.157,-40.95,23.45,25.06,0.3523,-0.4679,0.6241
30.173,-32.83,29.4,30.59,0.3899,-0.3664,0.6207
30.189,-24.08,30.1,33.46,0.4601,-0.2674,0.6358
30.207,-13.58,26.39,28.28,0.4733,-0.2225,0.648
30.22,0.07,21.7,20.86,0.4631,-0.1893,0.6631
30.234,11.06,17.36,11.06,0.4411,-0.183,0.6636
30.25,20.72,14.28,2.31,0.3894,-0.1825,0.6622
30.264,27.79,12.81,-3.71,0.3943,-0.2298,0.6485
30.296,30.87,7.77,-0.49,0.4889,-0.3313,0.6822
30.313,26.6,2.17,10.15,0.6402,-0.3869,0.6422
30.33,21.14,-3.92,12.88,0.8325,-0.4006,0.5577
30.345,16.45,-8.33,6.72,0.8701,-0.3938,0.464
30.361,9.52,-10.99,-9.31,0.9315,-0.4055,0.3528
30.375,3.08,-10.92,-26.6,0.8974,-0.3586,0.2786
30.391,-3.99,-6.09,-45.57,0.8618,-0.3777,0.1434
30.409,-13.3,5.81,-69.23,0.8876,-0.424,0.1263
30.422,-26.67,14.42,-82.95,0.8256,-0.5202,0.159
30.436,-34.58,25.1299,-91.98,0.7588,-0.5773,0.2747
30.454,-43.89,34.3,-84.56,0.7895,-0.5397,0.4104
30.472,-48.79,39.06,-69.37,0.9145,-0.3376,0.5119
30.488,-42.77,39.2,-56.77,1.033,-0.1781,0.525
30.504,-26.53,35.77,-49.21,1.0335,-0.0244,0.5455
30.522,-9.7299,27.16,-52.99,1.0316,0.0629,0.5607
30.54,25.55,18.41,-64.61,0.8837,0.1127,0.588
30.553,41.09,13.72,-72.5199,0.5246,0.0732,0.5641
30.571,60.76,13.44,-72.5199,0.4148,0.0273,0.6285
30.589,69.79,35.0,-64.47,0.2103,-0.1342,0.8183
30.605,68.88,23.8,-53.83,0.0956,-0.2888,1.016
30.623,59.57,29.82,-36.4,0.1098,-0.4494,1.1594
30.641,45.0099,31.01,-21.07,0.14,-0.5158,1.1419
30.658,25.76,23.52,-16.52,0.3098,-0.6095,1.3317
30.676,7.7,13.37,-4.9699,0.5597,-0.7388,1.6655
30.694,-20.58,-5.11,-1.12,0.5948,-0.608,1.951
30.712,-39.9,-26.81,-21.0,0.5299,-0.647,1.888
30.728,-50.61,-39.55,-49.84,0.4938,-0.5895,1.6962
30.742,-56.28,-46.2,-65.17,0.4299,-0.505,1.4474
30.758,-65.66,-50.12,-69.51,0.4094,-0.4582,1.2336
30.773,-77.14,-51.1,-54.67,0.4567,-0.427,1.015
30.791,-89.88,-50.82,-22.33,0.5167,-0.4099,0.8608
30.809,-102.97,-50.33,0.42,0.5353,-0.3625,0.7046
30.825,-110.81,-51.31,10.99,0.5626,-0.3786,0.6148
30.843,-120.61,-54.88,11.4799,0.6207,-0.4626,0.5992
30.857,-128.52,-59.99,8.05,0.6246,-0.4836,0.5753
30.875,-136.4299,-68.39,2.52,0.647,-0.5187,0.588
30.892,-150.71,-75.11,-3.29,0.6407,-0.4587,0.548
30.908,-161.0,-81.13,-10.92,0.4987,-0.4445,0.5094
30.925,-170.94,-85.33,-14.49,0.445,-0.4187,0.4914
30.943,-180.67,-86.5199,-11.76,0.4118,-0.3069,0.4367
30.96,-184.66,-85.33,-8.33,0.4474,-0.1922,0.3596
30.976,-184.73,-83.44,-10.71,0.4191,-0.1034,0.2591
30.994,-182.07,-81.48,-18.1299,0.4679,-0.1195,0.2078
31.008,-178.5,-78.4,-20.93,0.5865,-0.1449,0.1307
31.026,-172.34,-74.69,-22.82,0.6866,-0.2845,0.08
31.043,-161.28,-69.51,-28.14,0.8774,-0.5543,-0.1688
31.058,-153.58,-64.19,-41.44,1.0374,-1.0379,-0.4079
31.074,-160.23,-58.59,-61.88,1.0643,-1.5508,-0.5377
31.09,-179.41,-60.27,-69.65,1.0574,-1.7392,-0.5782
31.107,-202.72,-55.65,-57.19,1.2043,-1.8939,-0.5987
31.124,-227.01,-47.04,-16.66,1.2239,-1.7231,-0.4592
31.14,-245.14,-34.65,21.35,1.22,-1.42,-0.3542
31.158,-252.91,-16.66,62.86,1.1941,-1.1507,-0.3269
31.176,-246.47,-0.91,79.1,1.0287,-0.6729,-0.3908
31.192,-234.22,11.76,77.0,0.9574,-0.4679,-0.4274
31.208,-216.09,20.65,66.78,0.9062,-0.3967,-0.3494
31.225,-196.98,28.77,51.8,0.9003,-0.4294,-0.2713
31.243,-175.7,32.9,34.44,0.7973,-0.505,-0.1751
31.26,-161.21,35.63,17.85,0.6758,-0.5407,-0.08
31.278,-150.64,38.57,5.25,0.5612,-0.569,0.0248
31.295,-144.69,42.7,3.71,0.4518,-0.5377,0.1024
31.311,-140.14,46.2,8.68,0.4133,-0.4762,0.1751
31.327,-134.12,50.89,18.48,0.4245,-0.4206,0.2318
31.343,-128.24,54.88,30.38,0.4621,-0.3523,0.2508
31.36,-117.53,58.03,40.18,0.5001,-0.3025,0.262
31.378,-104.65,60.83,42.91,0.5011,-0.2366,0.2435
31.394,-89.46,62.16,35.91,0.548,-0.2888,0.2249
31.41,-77.14,61.32,23.8,0.6832,-0.3879,0.1825
31.428,-61.46,59.15,14.7,0.7983,-0.444,0.1795
31.445,-49.21,57.82,9.52,0.9354,-0.6675,0.101
31.462,-40.6,56.7,7.91,1.0218,-0.8208,0.0029
31.477,-34.65,57.12,8.82,1.0609,-0.9018,-0.0688
31.492,-27.79,59.01,10.5,1.0926,-0.9394,-0.1712
31.51,-17.99,63.49,10.5,1.076,-0.9213,-0.2893
31.528,-9.03,69.86,6.3,0.9882,-0.8383,-0.3342
31.544,-0.42,74.83,-1.47,0.9218,-0.7964,-0.3206
31.561,8.33,81.83,-6.02,0.8652,-0.793,-0.3167
31.576,13.44,89.67,-3.64,0.8364,-0.7686,-0.3001
31.592,16.87,97.79,4.76,0.813,-0.7661,-0.261
31.61,17.5,104.23,16.94,0.8149,-0.7412,-0.2244
31.628,17.08,107.8,28.7,0.7895,-0.6817,-0.1883
31.646,16.94,111.3,39.48,0.7632,-0.5929,-0.0082
31.663,17.85,111.09,45.43,0.7437,-0.5407,-0.0976
31.68,18.69,108.36,45.57,0.7417,-0.4621,-0.079
31.695,20.72,104.58,37.73,0.729,-0.426,-0.0736
31.713,22.9599,97.0899,23.94,0.71,-0.4318,-0.0732
31.73,22.9599,90.23,9.9399,0.7041,-0.4582,-0.0727
31.748,21.35,82.53,-3.57,0.7368,-0.4865,-0.0468
31.766,16.45,72.5199,-9.45,0.7671,-0.4899,-0.0165
31.783,11.97,64.33,-11.62,0.7671,-0.5226,-0.0326
31.799,5.46,55.23,-11.6899,0.7627,-0.5675,-0.0522
31.815,-3.5,47.32,-10.43,0.7749,-0.6046,-0.0834
31.831,-13.72,38.36,-8.33,0.7642,-0.6217,-0.0951
31.848,-24.22,29.68,-5.6,0.772,-0.6475,-0.0775
31.865,-32.2,20.16,-3.64,0.7876,-0.6631,-0.0644
31.878,-43.61,11.34,-2.66,0.83,-0.7154,-0.0073
31.893,-54.46,1.19,-3.71,0.8754,-0.7578,0.019
31.909,-67.2,-9.52,-5.46,0.9237,-0.8003,0.0292
31.925,-78.96,-22.47,-7.91,0.9989,-0.853,0.0331
31.938,-90.44,-33.74,-9.59,1.0365,-0.8886,0.0585
31.952,-102.41,-44.66,-10.64,1.0472,-0.9272,0.0839
31.968,-114.24,-52.71,-12.25,1.0492,-0.9803,0.0522
31.999,-136.64,-68.53,-14.98,0.9716,-0.9935,0.0082
32.017,-147.56,-71.19,-10.99,0.8876,-0.8969,0.0492
32.031,-156.59,-71.19,-3.22,0.8476,-0.7588,0.0897
32.044,-160.44,-68.18,7.98,0.8335,-0.6129,0.1102
32.062,-159.53,-61.11,24.5,0.8091,-0.4767,0.0834
32.079,-153.86,-51.94,33.53,0.7934,-0.4216,0.0087
32.095,-145.32,-43.54,32.7599,0.8403,-0.3864,-0.0756
32.113,-133.84,-35.14,23.52,0.8993,-0.3952,-0.139
32.13,-121.66,-28.98,13.65,0.9247,-0.4289,-0.1556
32.148,-111.65,-22.89,5.46,0.9374,-0.4728,-0.139
32.166,-101.85,-16.45,3.99,0.9389,-0.5255,-0.0927
32.179,-93.73,-12.39,5.95,0.9237,-0.5631,-0.0463
32.195,-88.55,-7.35,7.21,0.8579,-0.6031,-0.0024
32.213,-85.12,-2.94,9.17,0.8276,-0.6178,0.0649
32.231,-83.0199,1.19,12.74,0.8261,-0.6275,0.1093
32.249,-81.55,4.13,17.92,0.83,-0.6261,0.1366
32.266,-78.96,6.16,21.07,0.8305,-0.6163,0.121
32.283,-75.53,7.7,21.91,0.8213,-0.5899,0.1019
32.301,-71.75,8.12,21.28,0.8027,-0.5699,0.0956
32.319,-65.87,7.91,21.14,0.8056,-0.5553,0.1132
32.337,-60.13,6.37,23.03,0.8022,-0.507,0.1751
32.354,-52.43,4.13,24.5,0.7871,-0.4616,0.223
32.37,-45.22,0.49,21.14,0.7817,-0.4333,0.2664
32.385,-33.32,-3.78,14.7,0.811,-0.3918,0.3123
32.4,-21.0,-9.17,5.81,0.8281,-0.3689,0.3294
32.416,-5.7399,-16.03,-9.38,0.8579,-0.3655,0.3001
32.434,16.52,-22.68,-24.22,0.8779,-0.384,0.2103
32.452,40.32,-31.43,-36.89,1.0409,-0.6085,0.0356
32.47,61.81,-40.04,-50.82,1.3356,-0.7549,-0.1273
32.488,87.57,-47.04,-63.7,1.2741,-0.8217,-0.3557
32.505,117.88,-46.62,-80.78,1.0072,-0.8315,-0.6734
32.523,136.22,-40.74,-87.08,0.9228,-0.8974,-0.7964
32.538,150.08,-32.9,-81.97,0.9818,-0.9608,-0.7154
32.555,162.75,-26.39,-72.8,1.0116,-1.0301,-0.6178
32.571,172.69,-22.33,-69.44,0.9906,-1.0862,-0.5441
32.587,180.53,-18.34,-70.28,0.8579,-1.0726,-0.4826
32.604,185.71,-12.46,-67.76,0.7163,-1.0326,-0.4069
32.622,188.16,-4.48,-57.68,0.606,-0.9613,-0.3342
32.639,188.09,1.4,-40.11,0.5699,-0.8915,-0.2542
32.656,187.1799,6.51,-19.67,0.5631,-0.8217,-0.2083
32.672,188.51,9.24,-5.95,0.5533,-0.7588,-0.1747
32.69,191.94,10.71,-0.14,0.5319,-0.73,-0.1693
32.708,195.65,11.13,-7.07,0.4748,-0.6788,-0.1688
32.724,204.33,12.46,-17.29,0.4357,-0.6753,-0.1703
32.742,209.37,14.7,-28.0,0.427,-0.7207,-0.162
32.76,211.47,17.64,-30.1,0.4499,-0.7778,-0.142
32.778,208.32,21.07,-22.12,0.4875,-0.8296,-0.1132
32.795,204.19,23.52,-10.36,0.5006,-0.8481,-0.0912
32.812,198.17,24.64,-0.98,0.5187,-0.8408,-0.0712
32.828,193.48,24.78,6.02,0.5807,-0.8505,-0.0605
32.845,187.46,23.1,11.06,0.6729,-0.8813,-0.0546
32.863,182.63,20.79,14.07,0.7534,-0.8847,-0.0649
32.879,178.99,18.2,10.08,0.789,-0.8896,-0.0819
32.895,174.23,15.89,4.69,0.8149,-0.9091,-0.0736
32.913,167.23,11.6899,-0.14,0.9189,-0.9774,-0.1
32.926,158.34,7.49,-3.99,1.0926,-1.1209,-0.1444
32.944,147.98,2.66,-8.05,1.0345,-1.1184,-0.121
32.962,136.15,0.63,-13.3,0.8803,-1.0316,0.0029
32.979,120.19,-1.05,-11.13,0.832,-0.9506,0.0517
32.997,105.07,-2.45,0.84,0.8954,-0.8149,0.0326
33.013,94.92,-4.55,18.55,0.9267,-0.6783,0.018
33.029,84.56,-7.07,34.79,0.9394,-0.5885,0.0263
33.045,76.93,-12.53,48.79,0.974,-0.4684,0.0287
33.063,72.24,-20.3,57.75,0.972,-0.366,0.0439
33.077,70.7,-26.67,56.7,0.9613,-0.2576,0.0478
33.091,72.94,-32.55,49.63,0.8637,-0.1883,0.0453
33.105,75.81,-38.22,34.72,0.7544,-0.1586,0.0483
33.121,78.82,-42.28,15.47,0.6656,-0.1551,0.0756
33.137,80.08,-45.57,4.34,0.5919,-0.1698,0.101
33.154,78.4,-47.25,1.96,0.5841,-0.1976,0.1317
33.172,72.5899,-49.28,12.53,0.6251,-0.2381,0.1727
33.19,61.81,-54.04,28.84,0.6612,-0.301,0.2274
33.208,50.61,-60.13,41.58,0.73,-0.3357,0.2254
33.222,43.89,-65.5199,48.16,0.7529,-0.3528,0.2181
33.24,34.37,-72.45,48.72,0.7788,-0.3816,0.2015
33.257,28.56,-80.01,44.03,0.8134,-0.3928,0.1927
33.275,22.05,-88.48,38.29,0.8627,-0.4274,0.1893
33.293,15.47,-96.32,34.37,0.932,-0.4816,0.2127
33.311,7.91,-104.16,34.09,0.9891,-0.5041,0.1854
33.329,0.28,-109.76,34.16,1.0057,-0.5631,0.1503
33.345,-5.18,-114.31,33.6699,1.0643,-0.6466,0.1263
33.361,-10.08,-118.37,35.14,1.1219,-0.6627,0.0985
33.378,-14.14,-120.33,36.33,1.1165,-0.6617,0.0375
33.394,-16.94,-122.08,33.39,1.1658,-0.7803,-0.0478
33.408,-19.6,-122.71,29.4,1.1785,-0.7983,-0.1
33.425,-21.56,-122.15,22.68,1.1658,-0.813,-0.1156
33.44,-23.3799,-121.45,15.75,1.135,-0.8105,-0.1429
33.456,-25.34,-120.12,10.29,1.1336,-0.8242,-0.1815
33.472,-27.37,-117.88,5.95,1.1092,-0.7827,-0.1766
33.49,-26.88,-113.33,3.22,1.0555,-0.7246,-0.16
33.508,-23.94,-105.77,-1.68,0.8447,-0.65,-0.1288
33.525,-21.56,-97.79,-7.98,0.7256,-0.6197,-0.1063
33.543,-20.79,-89.18,-11.2,0.7076,-0.6134,-0.0936
33.56,-20.44,-78.96,-8.12,0.7451,-0.5714,-0.0917
33.577,-20.16,-70.35,-3.01,0.7583,-0.568,-0.0932
33.591,-19.39,-63.0,-1.33,0.7334,-0.5758,-0.1015
33.607,-17.78,-56.07,-3.92,0.6973,-0.5914,-0.1171
33.625,-17.92,-48.3,-9.7299,0.6544,-0.6124,-0.1317
33.641,-18.9,-40.32,-10.57,0.6583,-0.6168,-0.1395
33.657,-21.14,-32.27,-7.84,0.6612,-0.6168,-0.1424
33.673,-23.59,-24.36,-2.45,0.6729,-0.6456,-0.1566
33.69,-28.07,-16.94,3.5,0.67,-0.6783,-0.1717
33.708,-33.81,-10.15,10.5,0.6871,-0.7056,-0.181
33.726,-38.78,-3.08,14.63,0.7198,-0.7217,-0.2059
33.744,-42.28,2.8,16.03,0.7066,-0.7095,-0.2435
33.762,-43.89,9.52,15.54,0.6954,-0.6768,-0.2698
33.78,-45.9199,14.98,16.87,0.7022,-0.6051,-0.2913
33.797,-46.7599,20.58,19.18,0.7237,-0.5943,-0.2786
33.815,-47.25,24.57,20.51,0.7446,-0.6017,-0.2571
33.832,-47.88,27.44,20.58,0.7793,-0.6212,-0.244
33.847,-48.02,29.68,20.23,0.8047,-0.6387,-0.243
33.865,-47.88,31.99,20.16,0.8086,-0.6392,-0.2493
33.883,-48.23,34.37,21.84,0.8486,-0.6051,-0.2708
33.9,-46.97,36.19,22.47,0.8637,-0.5777,-0.2888
33.915,-44.73,37.52,18.83,0.9984,-0.5572,-0.3084
33.933,-40.6,37.94,12.04,0.9013,-0.5865,-0.3347
33.95,-38.36,36.82,5.25,1.0409,-0.6978,-0.3894
33.968,-38.15,34.93,-0.21,1.1668,-0.8174,-0.4313
33.986,-39.2,32.83,-0.84,1.1253,-0.8022,-0.3899
34.004,-39.41,34.3,2.94,0.9667,-0.629,-0.3494
34.022,-37.59,37.59,9.7299,0.8461,-0.4631,-0.3025
34.04,-30.1,42.49,18.41,0.7559,-0.1747,-0.2269
34.057,-20.23,46.62,19.67,0.6778,-0.0917,-0.1995
34.07,-10.36,48.93,13.72,0.6402,-0.1073,-0.1849
34.084,-1.26,50.4,6.16,0.6592,-0.1615,-0.1966
34.098,4.69,50.82,-3.5,0.6914,-0.2479,-0.1981
34.128,9.9399,47.6699,-14.7,0.8286,-0.4699,-0.2552
34.146,7.77,43.82,-13.79,0.891,-0.6002,-0.2752
34.162,1.75,39.41,-9.38,0.9203,-0.6963,-0.2537
34.18,-4.48,34.86,-3.43,0.9032,-0.7032,-0.2371
34.198,-13.58,30.03,3.08,0.8505,-0.6607,-0.1888
34.213,-19.04,25.69,9.1,0.8115,-0.6075,-0.1532
34.229,-23.59,22.33,16.94,0.8032,-0.5426,-0.1195
34.245,-26.11,18.34,23.03,0.8071,-0.484,-0.1166
34.261,-26.88,13.86,27.93,0.8105,-0.4265,-0.1176
34.278,-25.06,9.7299,30.17,0.8174,-0.3928,-0.1307
34.296,-21.98,5.67,28.21,0.7949,-0.3547,-0.1483
34.312,-17.99,2.03,23.59,0.7622,-0.3581,-0.1664
34.328,-14.49,-1.68,18.34,0.7656,-0.3581,-0.1654
34.342,-10.85,-4.62,15.26,0.769,-0.3606,-0.1381
34.36,-7.77,-8.33,14.7,0.7705,-0.3533,-0.1229
34.378,-3.99,-11.97,16.8,0.7661,-0.3606,-0.101
34.395,-1.54,-16.45,20.58,0.8193,-0.3894,-0.0961
34.411,0.56,-21.0,23.73,0.915,-0.4372,-0.12
34.429,2.17,-29.33,23.45,1.0194,-0.5328,-0.1712
34.447,3.29,-37.87,17.64,1.1209,-0.668,-0.2483
34.465,3.5,-47.6699,10.15,1.179,-0.7881,-0.2849
34.483,2.73,-54.95,5.81,1.1941,-0.8642,-0.3606
34.496,2.73,-58.66,4.9699,1.0662,-0.8071,-0.3786
34.511,4.9,-59.99,5.32,0.9394,-0.6905,-0.362
34.528,9.9399,-59.43,6.51,0.8325,-0.528,-0.3352
34.545,18.76,-58.03,5.81,0.8081,-0.4318,-0.305
34.559,26.74,-57.05,2.17,0.7934,-0.3796,-0.2928
34.59,50.68,-53.41,-19.11,0.6817,-0.424,-0.3006
34.606,61.74,-50.47,-31.43,0.6202,-0.506,-0.3103
34.622,69.0199,-45.71,-36.33,0.5875,-0.5592,-0.3225
34.636,71.68,-40.53,-34.58,0.5641,-0.6368,-0.3313
34.654,71.89,-32.9,-24.78,0.5582,-0.6827,-0.3562
34.669,69.37,-28.49,-14.98,0.569,-0.7476,-0.3899
34.682,65.5199,-24.08,-4.9,0.588,-0.7954,-0.4055
34.696,61.32,-20.16,2.8,0.6153,-0.813,-0.4274
34.712,57.47,-17.57,10.57,0.6178,-0.8281,-0.4328
34.726,52.85,-14.98,14.21,0.6046,-0.8305,-0.446
34.754,45.9199,-12.39,14.07,0.5773,-0.8169,-0.4611
34.77,41.65,-11.83,12.74,0.6085,-0.8052,-0.4679
34.786,38.36,-12.11,13.16,0.6397,-0.7856,-0.4523
34.804,34.44,-12.95,13.93,0.6514,-0.7661,-0.4304
34.818,32.13,-14.07,13.16,0.6383,-0.7598,-0.4182
34.834,30.52,-15.05,9.59,0.6182,-0.7515,-0.4065
34.852,28.42,-16.45,5.39,0.61,-0.7339,-0.4084
34.868,27.51,-16.94,0.77,0.6046,-0.7168,-0.4196
34.886,26.6,-17.01,-3.15,0.5968,-0.7178,-0.4372
34.903,26.6,-15.89,-5.39,0.5729,-0.7017,-0.4514
34.918,25.41,-14.49,-4.83,0.5797,-0.7154,-0.466
34.936,23.87,-12.32,-1.89,0.5909,-0.7237,-0.4709
34.952,22.75,-10.15,0.35,0.5948,-0.7442,-0.487
34.97,21.56,-8.26,0.98,0.6065,-0.7554,-0.4933
34.987,19.74,-6.86,0.98,0.5934,-0.749,-0.4748
35.001,17.92,-5.32,2.03,0.6036,-0.7417,-0.447
35.015,16.1,-4.34,4.62,0.6344,-0.7398,-0.4177
35.029,13.93,-3.99,7.35,0.6563,-0.7329,-0.404
35.047,12.88,-4.06,9.24,0.6788,-0.7266,-0.3938
35.061,11.2,-4.83,9.17,0.6963,-0.728,-0.3908
35.075,9.9399,-5.6,8.89,0.7124,-0.7212,-0.3884
35.093,9.03,-6.93,8.89,0.7202,-0.7168,-0.3977
35.111,7.77,-8.33,8.89,0.7432,-0.7071,-0.403
35.129,7.0,-9.9399,9.59,0.7861,-0.6978,-0.3957
35.146,6.65,-12.11,10.15,0.7915,-0.67,-0.3596
35.164,7.28,-14.91,9.9399,0.7978,-0.65,-0.3264
35.182,8.68,-17.36,9.24,0.7944,-0.5953,-0.2967
35.197,10.64,-19.95,9.52,0.8071,-0.5616,-0.2771
35.213,13.3,-21.91,9.8,0.8213,-0.5289,-0.2674
35.231,17.5,-25.06,7.77,0.8193,-0.5192,-0.2591
35.247,21.14,-27.37,3.99,0.8286,-0.5099,-0.2669
35.265,26.88,-29.96,-2.03,0.8203,-0.5123,-0.2771
35.283,32.2,-31.92,-10.99,0.8213,-0.525,-0.2937
35.299,36.75,-33.6699,-18.41,0.8154,-0.5382,-0.304
35.317,40.53,-35.07,-25.1299,0.8027,-0.5612,-0.3079
35.333,43.4,-35.91,-29.89,0.8105,-0.588,-0.3108
35.347,45.22,-36.4,-32.83,0.7842,-0.6085,-0.2879
35.363,45.5,-36.68,-32.48,0.8052,-0.6163,-0.3128
35.381,44.94,-35.91,-28.84,0.7861,-0.6226,-0.3015
35.399,42.98,-35.0,-25.62,0.7607,-0.6329,-0.2971
35.416,41.02,-33.81,-23.24,0.7451,-0.63,-0.2835
35.431,39.55,-32.83,-22.19,0.732,-0.627,-0.2771
35.449,37.52,-31.36,-22.54,0.7163,-0.6182,-0.2713
35.467,36.2599,-29.75,-24.29,0.6895,-0.6163,-0.2732
35.482,34.44,-27.79,-24.64,0.6851,-0.6158,-0.2864
35.498,31.92,-25.97,-23.03,0.6875,-0.6285,-0.301
35.516,27.44,-23.31,-18.48,0.7017,-0.6495,-0.323
35.534,24.64,-21.77,-14.63,0.7217,-0.6617,-0.3401
35.552,19.32,-19.74,-13.09,0.7334,-0.6675,-0.345
35.569,15.75,-18.69,-12.39,0.729,-0.6666,-0.3347
35.587,11.9,-17.78,-11.4799,0.7105,-0.6607,-0.3152
35.6,8.12,-17.01,-9.24,0.7198,-0.6495,-0.302
35.615,5.04,-16.73,-5.32,0.7246,-0.6378,-0.2791
35.63,1.47,-16.17,-1.47,0.7315,-0.6344,-0.2684
35.648,-2.94,-16.1,2.1,0.7373,-0.6275,-0.2718
35.663,-6.37,-16.45,3.5,0.75,-0.6256,-0.2703
35.677,-8.4,-16.8,3.57,0.7554,-0.61,-0.2679
35.694,-10.22,-17.29,2.03,0.7422,-0.6187,-0.2703
35.71,-11.6899,-17.5,-0.07,0.731,-0.6153,-0.2718
35.728,-13.72,-17.5,-0.63,0.7334,-0.6314,-0.2879
35.745,-15.61,-16.94,0.35,0.7427,-0.65,-0.2986
35.762,-17.22,-15.75,3.71,0.732,-0.6519,-0.3059
35.776,-18.55,-14.14,7.49,0.709,-0.6597,-0.3162
35.794,-19.4599,-10.57,13.02,0.6783,-0.667,-0.3186
35.812,-18.97,-7.28,16.8,0.6783,-0.6641,-0.303
35.828,-17.64,-4.27,20.09,0.6988,-0.6563,-0.2308
35.844,-12.81,-2.03,20.23,0.6817,-0.6358,-0.1751
35.861,-4.48,-0.56,15.19,0.7076,-0.6519,-0.1703
35.878,6.93,-0.28,7.77,0.7895,-0.6954,-0.1688
35.894,22.19,-1.05,-2.73,0.8388,-0.729,-0.1795
35.909,37.38,-2.52,-18.62,0.8335,-0.7642,-0.1795
35.926,56.42,-3.5,-30.1,0.8047,-0.8066,-0.1927
35.943,76.37,-1.75,-34.72,0.7276,-0.8437,-0.2156
35.961,91.7,2.45,-32.41,0.6558,-0.9174,-0.2069
35.977,105.42,8.26,-26.81,0.586,-0.9511,-0.1722
35.992,115.71,14.42,-18.83,0.5411,-0.976,-0.1346
36.01,127.05,23.31,-11.41,0.4758,-0.976,-0.0888
36.028,138.53,31.43,-5.11,0.3967,-0.9584,-0.059
36.045,147.14,39.34,-0.63,0.3796,-0.9559,-0.0336
36.061,154.35,46.2,3.57,0.406,-0.9647,-0.0097
36.076,158.76,50.68,6.93,0.4533,-0.9984,0.0302
36.091,161.28,53.62,9.8,0.5138,-1.0326,0.0751
36.109,163.31,54.67,11.55,0.5938,-1.0623,0.1102
36.127,163.59,35.98,10.92,0.6714,-1.0892,0.1434
36.143,162.5399,51.73,9.38,0.7193,-1.0877,0.1537
36.158,161.14,49.91,7.28,0.731,-1.0814,0.1629
36.172,159.0399,47.95,6.93,0.7554,-1.0599,0.1522
36.188,156.52,45.5,9.17,0.8174,-1.0272,0.121
36.206,152.25,43.05,14.77,0.8427,-1.0038,0.0907
36.221,148.26,40.18,17.22,0.8125,-1.0062,0.1234
36.235,143.01,38.15,18.69,0.7749,-1.0135,0.2005
36.251,135.73,35.07,22.68,0.77,-0.9847,0.2527
36.268,127.54,31.43,33.11,0.793,-0.8847,0.2825
36.286,119.42,26.39,50.19,0.7944,-0.7398,0.2971
36.302,113.82,21.0,66.92,0.8374,-0.6192,0.2835
36.318,110.32,12.39,82.74,0.9784,-0.4387,0.2518
36.334,110.53,0.98,99.33,1.0496,-0.2781,0.2054
36.351,113.82,-12.32,104.0199,1.0316,-0.22,0.1781
36.367,121.1,-24.15,94.64,1.0008,-0.1883,0.1678
36.383,130.13,-37.24,77.21,0.9628,-0.1937,0.1795
36.397,137.62,-47.88,54.6,0.8984,-0.2137,0.1903
36.413,144.27,-56.49,28.07,0.8476,-0.262,0.2196
36.431,149.17,-65.38,5.04,0.7861,-0.3508,0.2493
36.449,149.17,-70.21,-11.06,0.7144,-0.4108,0.2625
36.466,145.0399,-73.92,-13.58,0.6832,-0.4601,0.2688
36.484,135.87,-76.93,-4.76,0.6924,-0.4645,0.2649
36.502,125.09,-75.81,-6.44,0.9232,-0.2132,0.3567
36.518,107.8,-69.3,-38.22,1.2814,0.1659,0.3982
36.536,80.22,-51.8,-59.92,0.8632,-0.6866,0.221
36.553,65.17,-43.96,-30.1,0.7334,-0.5128,0.2283
36.571,40.53,-49.4199,13.79,0.6041,-0.445,0.343
36.587,40.81,-38.0099,48.44,0.6588,-0.6919,0.5041
36.605,33.18,-38.36,75.6,0.5807,-0.5963,0.547
36.622,31.64,-36.75,84.0,0.7461,-0.508,0.5319
36.638,30.66,-35.21,78.19,0.8286,-0.5001,0.5045
36.652,29.05,-33.11,68.11,0.8364,-0.5529,0.4816
36.668,27.44,-29.05,63.7,0.8213,-0.5621,0.5084
36.682,25.48,-25.06,66.08,0.7871,-0.5265,0.5587
36.7,22.19,-19.74,74.06,0.7744,-0.6056,0.6261
36.717,18.62,-14.14,80.92,0.6573,-0.5021,0.7115
36.735,16.87,-4.34,75.46,0.4928,-0.4875,0.6914
36.75,18.34,4.06,61.67,0.4348,-0.4431,0.6285
36.766,21.56,13.09,40.18,0.4006,-0.4187,0.6041
36.784,26.88,22.33,19.53,0.3908,-0.4094,0.6119
36.802,27.3,30.73,8.96,0.3742,-0.4577,0.6583
36.818,28.98,37.24,8.4,0.4431,-0.4377,0.7568
36.834,27.72,44.1,11.41,0.3728,-0.6002,0.7617
36.853,25.41,42.84,10.29,0.4274,-0.5192,0.8769
36.871,23.3799,43.2599,-0.56,0.4221,-0.4938,0.9042
36.887,28.35,43.75,-15.47,0.3196,-0.4026,0.85
36.905,29.89,42.7,-29.82,0.3616,-0.5094,0.9403
36.921,29.19,41.65,-39.69,0.3591,-0.5084,0.9491
36.937,26.46,40.46,-45.99,0.4352,-0.588,1.0082
36.953,21.28,37.45,-48.93,0.4787,-0.5402,1.0038
36.967,17.78,35.49,-50.05,0.4762,-0.484,0.954
36.983,15.82,33.46,-51.1,0.5407,-0.4582,0.8769
36.997,13.44,29.54,-53.2,0.6051,-0.5294,0.8622
37.013,9.87,23.94,-55.23,0.5358,-0.5436,0.8281
37.027,4.41,22.19,-51.59,0.5572,-0.586,0.8774
37.043,-5.11,20.02,-42.14,0.6231,-0.6065,0.9057
37.061,-14.7,19.53,-25.27,0.6368,-0.5734,0.8627
37.077,-22.12,21.07,-14.21,0.6075,-0.5641,0.7788
37.093,-26.81,22.68,-10.29,0.5948,-0.5426,0.7095
37.111,-29.96,23.87,-8.54,0.6378,-0.5465,0.6817
37.129,-32.7599,22.9599,-7.0,0.6871,-0.487,0.6622
37.145,-32.97,21.42,-2.94,0.749,-0.4221,0.6197
37.162,-31.5,19.67,1.61,0.7446,-0.3904,0.5885
37.18,-27.86,18.34,6.37,0.7466,-0.3635,0.5626
37.196,-22.54,17.01,9.03,0.7285,-0.3176,0.5441
37.213,-16.17,14.91,10.08,0.7412,-0.3172,0.5519
37.229,-10.01,11.4799,6.86,0.6251,-0.3455,0.5631
37.246,-3.5,7.21,1.47,0.7598,-0.3796,0.5831
37.263,2.66,2.24,-4.76,0.7607,-0.3943,0.6065
37.281,6.23,-2.8,-8.33,0.7544,-0.4118,0.6431
37.295,8.61,-6.16,-10.29,0.7178,-0.4148,0.6685
37.313,10.08,-9.9399,-7.84,0.7202,-0.4104,0.6856
37.328,11.41,-12.25,-4.9699,0.6973,-0.4187,0.6866
37.342,11.83,-14.07,-0.07,0.6851,-0.4201,0.7095
37.358,11.6899,-15.61,6.58,0.7007,-0.4226,0.7315
37.373,12.74,-17.7099,11.06,0.6475,-0.4079,0.7583
37.389,14.35,-19.39,12.11,0.6363,-0.403,0.7534
37.407,15.96,-21.2099,9.03,0.6212,-0.4045,0.7627
37.425,18.62,-22.61,2.8699,0.6007,-0.3986,0.7554
37.442,19.74,-23.31,-2.66,0.5919,-0.3933,0.7451
37.455,20.37,-23.66,-5.88,0.5768,-0.4006,0.7227
37.468,20.16,-23.03,-8.89,0.5729,-0.4118,0.6997
37.486,17.92,-21.2099,-10.36,0.5602,-0.427,0.6866
37.503,14.63,-17.85,-9.03,0.5509,-0.4401,0.6949
37.519,10.71,-14.35,-7.35,0.5421,-0.446,0.688
37.535,5.18,-9.8,-5.32,0.5563,-0.4401,0.6905
37.553,-1.12,-5.04,-4.69,0.5655,-0.4562,0.6729
37.568,-4.69,-1.05,-6.3,0.5524,-0.4435,0.6788
37.586,-8.47,3.64,-9.24,0.5616,-0.4538,0.6924
37.603,-12.25,8.1899,-13.44,0.5387,-0.4509,0.7095
37.621,-16.66,13.3,-15.19,0.5699,-0.4406,0.7432
37.638,-19.4599,15.89,-15.61,0.6124,-0.4313,0.7627
37.656,-21.7,17.01,-15.19,0.6578,-0.4108,0.7695
37.674,-22.26,16.87,-14.63,0.6944,-0.3606,0.7734
37.691,-20.86,15.19,-18.76,0.709,-0.3191,0.7627
37.709,-17.64,12.88,-25.83,0.7051,-0.2971,0.7422
37.727,-15.82,9.9399,-33.81,0.7222,-0.2908,0.7241
37.743,-12.32,7.07,-35.84,0.75,-0.243,0.6924
37.761,-10.01,4.48,-30.45,0.7656,-0.2147,0.691
37.779,-7.91,2.1,-23.66,0.7759,-0.2108,0.6861
37.797,-4.48,-1.19,-17.92,0.7764,-0.1312,0.6895
37.815,2.24,-5.25,-13.09,0.7002,-0.0917,0.71
37.831,7.91,-9.59,-11.83,0.6827,-0.079,0.6509
37.849,16.45,-13.72,-12.53,0.6407,-0.0746,0.6222
37.867,25.69,-14.56,-9.66,0.7061,-0.0385,0.6773
37.885,35.7,-12.95,-10.08,0.6036,-0.0844,0.668
37.903,42.98,-5.67,-4.83,0.5187,-0.0854,0.8481
37.92,47.18,6.44,10.78,0.446,-0.1,0.972
37.936,50.2599,17.22,30.38,0.384,-0.0736,1.0555
37.954,57.47,32.27,50.61,0.3108,0.04,1.096
37.972,67.3399,43.61,52.43,0.2391,0.1171,1.1585
37.988,78.05,49.56,46.83,0.2088,0.1605,1.0716
38.002,88.41,53.76,47.25,0.16,0.2659,1.0628
38.018,92.54,52.85,55.09,0.1224,0.2464,1.159
38.032,106.75,48.58,63.56,0.2235,0.281,1.1316
38.048,119.84,41.02,68.04,0.0922,0.2898,1.2746
38.064,127.33,30.1,70.49,0.1102,0.2571,1.4127
38.078,135.52,20.44,70.42,0.24,0.1825,1.4449
38.093,140.14,5.95,71.33,0.4016,0.0727,1.4771
38.109,138.6,-7.77,73.15,0.5036,-0.0566,1.4923
38.123,132.65,-19.4599,72.24,0.6641,-0.1961,1.4527
38.139,121.38,-25.62,70.63,0.7593,-0.2708,1.3864
38.153,105.91,-33.11,62.72,0.8505,-0.3928,1.3678
38.171,77.07,-37.03,37.59,0.914,-0.547,1.2805
38.188,47.88,-40.88,10.85,0.9594,-0.628,1.1365
38.206,16.52,-44.38,-25.69,0.934,-0.6319,0.9901
38.222,-18.76,-46.27,-41.16,0.8925,-0.6197,0.8247
38.238,-61.25,-44.94,-32.48,0.8081,-0.6622,0.6529
38.255,-104.3,-38.64,-5.18,0.6993,-0.6148,0.4348
38.27,-134.19,-31.85,18.69,0.5553,-0.4367,0.2557
38.287,-153.23,-14.77,20.37,0.528,-0.2474,0.2742
38.303,-161.42,-4.76,-4.34,0.6436,-0.0912,0.3245
38.32,-160.7899,-0.14,-47.81,0.7344,-0.0727,0.3245
38.338,-159.0399,2.94,-86.03,0.6861,-0.22,0.3269
38.356,-156.03,9.03,-88.06,0.4596,-0.4919,0.2561
38.371,-149.8,19.25,-75.11,0.345,-0.3391,0.4923
38.387,-133.84,29.33,-70.7,0.6217,-0.1815,0.5812
38.405,-119.49,30.87,-91.0,0.973,-0.2435,0.7851
38.422,-94.92,29.89,-140.49,0.8364,-0.2644,0.729
38.44,-75.25,23.66,-195.02,1.1062,-0.4026,0.9969
38.453,-63.42,13.23,-182.07,1.2073,-0.3991,1.2814
38.467,-56.35,2.52,-171.4299,1.0433,-0.3816,1.4591
38.484,-60.76,-7.07,-149.03,0.935,-0.7183,1.4049
38.5,-55.72,-3.78,-99.4,0.4523,-0.0775,1.3132
38.516,-48.72,3.08,-43.4,0.3938,0.1766,1.5045
38.529,-43.68,7.56,2.73,-0.0834,0.3015,1.4664
38.542,-27.93,13.65,30.24,-0.1751,0.4562,1.6211
38.558,-5.6,19.81,49.28,-0.3381,0.5929,1.5674
38.572,17.29,22.05,54.53,-0.3606,0.6773,1.4849
38.588,41.93,23.1,53.83,-0.2591,0.6426,1.2683
38.606,56.28,28.84,62.02,-0.2474,0.4923,1.1614
38.637,79.8,30.17,68.95,-0.3586,0.0946,1.0443
38.655,90.3,34.02,53.83,-0.3913,-0.0688,0.9867
38.671,96.74,37.03,35.91,-0.2888,-0.1659,0.9086
38.686,99.61,42.21,26.46,-0.099,-0.3201,0.8788
38.704,96.39,47.32,19.67,-0.0058,-0.5089,0.9462
38.722,92.61,54.67,8.33,0.1117,-0.7466,1.014
38.736,86.66,63.0,2.03,0.3474,-0.9545,1.1097
38.754,78.33,60.76,3.01,0.7573,-1.0413,1.2092
38.772,53.97,38.29,9.17,1.3771,-1.0828,1.1145
38.79,34.3,20.51,6.3,1.421,-1.2204,0.9969
38.806,6.16,10.5,6.51,1.1619,-1.4849,1.0662
38.821,-20.79,3.43,14.91,1.0086,-1.4825,1.0872
38.837,-42.4199,-6.58,19.04,0.9525,-1.2648,1.0067
38.851,-60.06,-15.82,15.26,0.8969,-1.0189,0.7622
38.866,-76.0899,-22.68,5.25,0.8271,-0.8315,0.546
38.881,-86.5199,-27.58,-3.22,0.75,-0.5753,0.2464
38.896,-93.03,-28.91,-14.56,0.5787,-0.4538,0.1385
38.914,-102.2,-27.02,-20.51,0.465,-0.3738,0.0814
38.932,-113.89,-23.73,-33.04,0.851,-0.0624,-0.0219
38.947,-115.01,-28.14,-70.0,0.792,0.12,-0.1898
38.963,-105.21,-31.85,-124.32,0.8579,0.2176,-0.1815
38.981,-94.36,-31.22,-166.53,0.9296,0.0419,-0.2615
38.998,-97.16,-25.06,-196.49,0.7681,-0.2318,-0.3694
39.015,-106.33,-18.27,-223.44,0.9642,-0.4401,-0.5114
39.031,-123.83,-10.08,-236.53,1.0643,-0.8588,-0.7041
39.045,-147.91,-5.32,-245.42,1.0823,-1.5254,-0.8569
39.063,-204.75,11.97,-237.23,0.728,-2.2677,-0.4191
39.08,-295.3299,29.96,-188.51,0.7266,-2.9084,0.0971
39.094,-369.88,46.34,-112.49,0.8476,-2.7069,0.5846
39.112,-435.4,66.78,-24.78,0.9447,-1.9471,1.0409
39.128,-456.89,83.16,-11.41,1.4478,-1.1311,1.0516
39.146,-438.34,90.72,-75.39,1.4425,-0.5533,0.8598
39.163,-401.31,92.33,-152.74,1.3605,-0.3674,0.7344
39.18,-374.64,97.23,-188.86,0.8008,-0.6309,0.8081
39.195,-366.31,117.11,-169.96,0.4631,-0.8681,0.874
39.211,-362.32,171.22,-115.57,0.2547,-0.9579,0.9935
39.226,-351.4,218.61,-72.24,0.3718,-0.9145,1.2204
39.242,-331.03,257.81,-57.96,0.423,-0.935,1.4337
39.26,-307.79,296.17,-52.99,0.4582,-1.0106,1.5542
39.278,-290.99,340.62,-13.16,0.4831,-1.3307,1.7294
39.293,-274.12,370.65,15.61,0.505,-1.5796,1.8226
39.309,-258.44,388.99,24.29,0.4553,-1.8095,1.8285
39.327,-244.65,401.94,29.47,0.3211,-1.9632,1.7753
39.345,-234.92,405.51,65.87,0.2332,-1.9266,1.5074
39.361,-221.97,406.42,101.36,0.183,-1.6787,1.1941
39.374,-205.03,399.07,116.27,0.1195,-1.5328,1.0262
39.388,-178.36,380.94,114.94,0.0727,-1.5972,0.8642
39.402,-161.35,355.6,118.72,0.0727,-1.6689,0.6778
39.416,-146.58,330.68,133.63,-0.0204,-1.6879,0.3889
39.431,-130.55,292.18,141.47,-0.1517,-1.7753,0.1166
39.458,-109.13,208.1799,115.92,-0.2479,-2.0178,-0.4479
39.476,-108.36,146.72,106.4,-0.3679,-2.2755,-0.9681
39.493,-124.11,88.3399,145.53,-0.2703,-2.4238,-1.6069
39.511,-123.83,-8.47,161.0,0.0741,-2.0144,-1.9915
39.529,-110.32,-109.69,155.82,0.301,-2.155,-2.3355
39.545,-126.07,-209.16,216.44,0.8725,-2.7362,-2.867
39.562,-136.15,-312.76,254.59,2.1623,-2.357,-3.211
39.577,-112.42,-425.18,179.27,4.0147,-1.5264,-3.7053
39.593,-21.6299,-585.27,130.48,5.3089,0.0068,-2.6303
39.611,76.86,-704.48,148.4,5.5422,0.3728,-2.2052
39.628,34.3,-911.82,-98.07,1.5689,-4.857,3.0119
39.645,480.62,183.61,342.65,8.2228,-3.9723,0.9442
39.661,34.72,-201.81,333.97,5.2152,-2.2594,0.5026
39.679,9.31,-253.82,73.57,2.2462,1.4762,-2.3424
39.696,100.24,-350.77,146.09,2.2155,-0.1947,-0.4694
39.712,98.14,-372.82,133.77,2.1037,0.5016,0.2576
39.73,135.8,-433.16,36.4,2.1027,1.0716,1.155
39.748,226.38,-481.88,24.78,1.8905,1.115,2.2745
39.765,271.1099,-506.24,75.95,1.3039,0.547,2.2535
39.783,288.12,-469.7,125.16,0.7305,0.057,1.9495
39.799,287.63,-425.18,166.39,0.6597,-0.4474,1.6435
39.815,278.95,-380.8,207.2,0.649,-0.4367,1.3786
39.831,272.51,-328.37,227.57,0.6383,-0.3118,1.178
39.847,268.52,-282.1,205.52,0.4348,-0.3796,0.9481
39.864,263.76,-237.16,178.99,0.4133,-0.4772,0.9584
39.882,252.91,-192.57,179.48,0.4601,-0.5382,1.0389
39.9,227.92,-152.32,187.0399,0.7046,-0.547,1.2248
39.916,207.97,-131.0399,179.76,0.854,-0.5041,1.2829
39.934,186.69,-108.36,160.9299,0.7778,-0.447,1.2614
39.952,165.97,-88.2,154.98,0.8388,-0.3923,1.2331
39.97,141.4,-70.0,163.24,0.9672,-0.2659,1.2038
39.983,125.86,-63.07,164.85,1.1053,0.1361,1.1887
39.999,120.05,-60.13,146.3,1.0711,0.3113,1.2048
40.015,119.56,-58.52,113.26,1.0413,0.3157,1.2697
40.03,115.99,-58.24,92.19,1.1048,0.3376,1.2663
40.057,10.08,-14.7,120.61,1.7216,2.7498,2.3877
40.073,89.18,-5.67,24.99,0.3142,0.9335,0.9164
40.091,44.38,-6.93,43.19,1.2736,0.0366,0.8818
40.108,12.39,-19.18,87.29,0.8398,-0.0619,0.6153
40.125,5.46,-20.16,91.42,0.7515,0.1019,0.8906
40.141,-7.0,-23.8,57.33,0.6358,0.0175,0.6509
40.159,-0.35,-1.47,18.06,0.4377,0.1542,0.5807
40.172,-4.48,-7.7,-3.99,0.3264,0.2098,0.6143
40.186,-16.52,3.15,-20.23,0.2283,0.1629,0.6075
40.203,-36.54,-3.29,-13.65,0.1512,0.0302,0.4313
40.217,-52.08,8.05,9.24,-0.018,-0.0107,0.4089
40.233,-55.93,24.5,31.01,-0.0556,0.0322,0.4684
40.25,-55.86,30.73,38.85,-0.0151,0.1034,0.4928
40.264,-51.1,27.65,33.81,0.0107,0.2332,0.5338
40.282,-39.06,22.82,17.22,0.1278,0.2937,0.5236
40.299,-21.98,15.75,-2.8,0.1678,0.322,0.5158
40.329,9.59,3.5,-24.29,0.2074,0.3284,0.5636
40.343,20.58,0.28,-27.37,0.2313,0.2874,0.669
40.361,30.52,-1.61,-29.12,0.2357,0.2752,0.7349
40.378,46.62,-0.42,-36.82,0.1747,0.3132,0.9618
40.393,56.0,1.54,-69.79,0.3225,0.1551,1.077
40.411,61.53,2.38,-67.41,0.6119,-0.1717,1.3395
40.424,54.74,2.59,-56.84,0.7827,-0.5148,1.9759
40.438,24.36,-6.44,-21.77,1.0247,-0.8017,2.5415
40.454,-9.52,-15.75,41.02,0.9555,-1.0648,2.5893
40.47,-55.65,-15.47,72.66,0.6065,-1.0906,2.2799
40.485,-71.26,-10.36,68.46,0.5402,-0.8857,2.1027
40.5,-71.96,-6.79,28.14,0.4489,-0.6661,1.8343
40.516,-68.32,-9.03,-41.58,0.4367,-0.5431,1.6479
40.533,-61.32,-14.28,-107.1,0.4396,-0.3757,1.321
40.547,-56.49,-19.04,-143.22,0.3996,-0.2669,1.0531
40.563,-54.32,-24.22,-157.71,0.4289,-0.2176,0.7686
40.577,-55.3,-29.12,-154.35,0.4313,-0.183,0.7778
40.606,-63.07,-35.98,-110.81,0.5294,0.0019,0.7202
40.624,-66.15,-38.5,-79.45,0.586,0.0473,0.7129
40.642,-69.58,-42.4199,-64.19,0.7276,-0.1029,0.8203
40.659,-75.88,-46.62,-49.49,0.8466,-0.2869,1.0067
40.677,-84.98,-47.53,-27.09,0.7134,-0.2898,1.1868
40.695,-105.84,-39.34,2.17,0.6563,-0.343,1.1145
40.713,-116.27,-24.5,35.35,0.6241,-0.1078,0.9145
40.729,-117.18,-15.82,46.55,0.709,0.0424,0.6744
40.747,-109.83,-8.47,46.97,0.8242,0.2025,0.5519
40.763,-94.22,-5.67,42.91,0.9247,0.2771,0.5006
40.778,-77.91,-6.16,34.02,0.9023,0.3196,0.4435
40.795,-56.98,-8.82,19.32,0.8637,0.2918,0.4401
40.812,-34.3,-11.62,6.23,0.7778,0.2074,0.4426
40.829,-17.64,-12.18,0.98,0.6919,0.1449,0.4792
40.843,-7.77,-10.99,-1.05,0.6075,0.0868,0.4767
40.861,4.27,-7.42,-3.85,0.5192,0.0239,0.4592
40.874,10.57,-3.43,-6.79,0.4689,-0.037,0.4616
40.888,14.14,0.49,-9.87,0.4553,-0.0819,0.4684
40.903,17.08,4.27,-12.04,0.4323,-0.1112,0.4797
40.921,18.97,8.61,-11.27,0.3884,-0.1478,0.508
40.936,19.11,13.16,-6.72,0.3635,-0.161,0.5148
40.953,17.7099,18.62,1.26,0.3035,-0.1722,0.5411
40.966,15.68,24.43,7.56,0.2571,-0.181,0.5773
40.983,13.58,31.92,17.01,0.2313,-0.1786,0.6261
40.997,11.83,38.15,23.66,0.2571,-0.1976,0.6714
41.013,11.34,43.2599,28.84,0.2991,-0.1859,0.7076
41.031,12.53,48.09,26.95,0.3557,-0.1859,0.752
41.046,17.22,51.03,18.69,0.3894,-0.1639,0.792
41.062,19.74,52.5,7.77,0.4865,-0.1878,0.8671
41.078,19.11,52.64,2.8,0.5987,-0.1981,0.9354
41.093,14.14,51.8,5.88,0.7129,-0.2278,1.0911
41.122,-3.57,44.59,28.98,0.7866,-0.2864,1.3561
41.138,-11.97,35.91,39.9,0.8471,-0.3484,1.4791
41.154,-21.42,24.5,39.62,0.872,-0.4299,1.5991
41.172,-29.54,7.28,25.76,0.8105,-0.4343,1.5811
41.185,-35.7,-2.1,6.3,0.6627,-0.386,1.4283
41.199,-40.74,-7.14,-13.09,0.5426,-0.3528,1.2844
41.215,-46.13,-9.7299,-25.69,0.4333,-0.3211,1.1341
41.233,-52.43,-7.7,-28.63,0.3538,-0.2864,1.0189
41.246,-61.46,-4.2,-23.94,0.3113,-0.2723,0.9472
41.26,-67.2699,-1.4,-15.19,0.3147,-0.2566,0.933
41.274,-72.8,0.49,-6.86,0.304,-0.2269,0.9013
41.306,-74.41,5.39,0.84,0.2698,-0.099,0.7554
41.323,-68.74,7.91,-1.68,0.261,-0.0126,0.668
41.34,-60.34,10.22,-8.89,0.2664,0.0204,0.6226
41.353,-52.78,12.74,-16.87,0.2723,0.0444,0.5934
41.367,-43.19,14.28,-25.41,0.3064,0.0356,0.5899
41.382,-35.63,15.89,-30.24,0.3762,0.0073,0.5997
41.412,-18.1299,14.0,-35.14,0.5324,-0.1283,0.7427
41.428,-11.62,10.36,-33.39,0.6187,-0.2259,0.8388
41.445,-5.6,5.11,-31.08,0.7002,-0.3098,0.9184
41.458,-0.49,1.82,-29.4,0.7471,-0.3347,0.9618
41.472,4.55,-2.38,-27.3,0.8466,-0.386,1.0038
41.486,8.75,-7.0,-26.81,0.9013,-0.4343,1.0213
41.515,16.31,-14.14,-30.66,0.8237,-0.5358,1.0526
41.531,13.02,-13.86,-19.39,0.7432,-0.6568,1.1326
41.548,1.19,-6.37,10.64,0.667,-0.8125,1.2234
41.565,-17.78,0.42,45.29,0.6822,-0.8705,1.2785
41.578,-32.27,2.59,64.82,0.6968,-0.6441,1.158
41.595,-39.83,2.31,66.99,0.7271,-0.5685,0.9213
41.61,-39.06,-0.84,51.87,0.7481,-0.3425,0.7368
41.625,-34.16,-6.23,28.7,0.7588,-0.1878,0.5001
41.654,-22.4,-14.49,-10.01,0.5123,0.0927,0.2537
41.67,-19.39,-13.23,-22.61,0.4362,-0.1961,-0.019
41.683,-13.37,-5.81,-18.83,0.183,0.0717,0.0029
41.697,-8.89,3.15,-18.9,-0.1376,0.2288,0.0258
41.712,-9.31,8.1899,-24.01,0.2274,0.18,-0.1556
41.726,3.92,3.01,-30.17,0.3977,0.0117,-0.0785
41.741,8.96,5.53,-48.72,0.1512,0.1712,-0.0204
41.757,14.91,4.62,-73.43,0.3806,0.4582,0.0995
41.772,29.96,1.33,-90.23,0.8276,0.2859,0.1342
41.787,33.81,-22.19,-119.98,1.0614,-0.9979,0.5973
41.817,35.28,-27.79,-156.45,1.6191,-0.7119,0.6792
41.833,15.89,-40.6699,-161.28,1.3019,-0.6617,0.9028
41.85,0.35,-42.14,-143.64,1.5698,-1.1394,1.0003
41.863,-15.33,-40.04,-131.11,1.6362,-1.2951,1.199
41.877,-31.08,-45.5,-122.01,1.6977,-1.4342,1.3459
41.891,-36.89,-49.56,-113.19,1.9476,-1.5503,1.2351
41.907,-45.43,-59.36,-108.29,2.0735,-1.5064,1.1936
41.923,-43.75,-56.0,-104.58,1.7431,-1.2473,0.8788
41.952,-23.03,-25.76,-104.51,1.0487,-0.6275,0.3259
41.97,-16.87,-5.7399,-91.7699,1.0526,-0.5499,0.1385
41.983,-14.28,8.82,-76.37,1.2253,-0.5382,0.1034
41.997,-15.4,14.0,-69.93,1.3707,-0.6012,0.1005
42.011,-17.92,10.29,-88.06,1.3341,-0.6924,0.1673
42.027,-22.19,0.77,-114.94,1.4234,-0.892,0.0497
42.042,-44.03,-11.83,-129.36,1.4103,-1.1111,-0.0219
42.056,-80.5,-20.72,-105.84,1.4259,-1.3502,-0.0375
42.072,-144.06,-29.26,-43.89,1.4366,-1.4298,-0.1449
42.086,-195.02,-31.01,8.82,1.199,-1.3019,-0.3347
42.102,-229.6,-34.86,2.1,0.7368,-1.1297,-0.4553
42.116,-245.0,-39.7599,-59.08,0.4421,-1.0033,-0.7427
42.148,-296.94,-81.41,-52.57,0.3264,-2.1047,-0.3416
42.166,-368.41,-3.5,-81.2,-0.1942,-1.9905,-0.1083
42.184,-427.63,-5.6,-97.3,-0.1312,-2.0979,0.3528
42.202,-463.19,-37.52,-171.15,-0.3416,-1.6079,0.2117
42.218,-498.4,-50.2599,-160.51,-0.0209,-1.5679,0.5163
42.234,-536.69,-36.12,-95.13,-0.0361,-1.5967,0.3986
42.252,-581.63,-18.62,-23.94,-0.0024,-1.522,0.5426
42.27,-605.08,15.89,33.46,0.2596,-1.3522,0.6563
42.283,-625.45,40.18,45.43,0.5973,-1.137,0.9662
42.3,-616.0,69.3,36.12,0.8481,-0.9071,0.8457
42.315,-593.11,98.42,16.31,1.0936,-0.5841,0.5397
42.333,-547.96,137.34,-2.8,1.3571,-0.2483,0.2781
42.351,-499.8,157.22,-31.36,1.564,-0.162,-0.0322
42.368,-454.3,171.92,-50.12,1.5337,-0.3562,-0.3674
42.385,-418.53,187.53,-55.09,1.5069,-0.3791,-0.5836
42.403,-370.09,197.82,-69.51,1.7519,-0.3674,-0.0732
42.42,-331.1,182.98,-118.3,1.83,-0.892,0.6392
42.438,-322.42,160.7899,-117.74,1.583,-1.3483,1.0062
